time,pos_x,pos_y,pos_z,vel_x,vel_y,vel_z,guid_ax,guid_ay,guid_az,tgo,dap_c12,dap_c3,dap_c6,dap_c9,nav_roll,nav_pitch,nav_yaw,accel_x,accel_y,accel_z,gyro_p,gyro_q,gyro_r,roll_rate_rps,T0,T1,T2,T3,fsa_flag,canard_deploy,canard_control,guid_start,proximity_flag,main_cycles,t1_cycles,t2_cycles,t3_cycles
0,1439665.141,6144028.09,939123.406,291.023675,-63.720685,-33.866368,0,0,0,0,-0.024433,-0.024433,-0.024433,-0.024433,0,0,0,0,0,0,69.115038,0,0,11,1,0,0,0,0,0,0,0,0,1,0,0,0
0.01,1439668.051,6144027.452,939123.0673,290.951652,-63.79388,-33.873316,0,0,0,0,-0.024433,-0.024433,-0.024433,-0.024433,0,0,0,-84.001023,-145.002226,0,69.114984,0,0,10.999991,1,0,0,0,0,0,0,0,0,2,0,0,0
0.02,1439670.959,6144026.813,939122.7285,290.882167,-63.857488,-33.878812,0,0,0,0,-0.024433,-0.024433,-0.024433,-0.024433,0,0,0,-83.890784,-144.815352,0,69.11482,0,0,10.999965,1,0,0,0,0,0,0,0,0,3,0,0,0
0.03,1439673.867,6144026.174,939122.3897,290.815177,-63.911501,-33.882851,0,0,0,0,-0.024433,-0.024433,-0.024433,-0.024433,0,0,0,-83.78079,-144.628889,0,69.114548,0,0,10.999922,1,0,0,0,0,0,0,0,0,4,0,0,0
0.04,1439676.775,6144025.535,939122.0508,290.750643,-63.955913,-33.885428,0,0,0,0,-0.024433,-0.024433,-0.024433,-0.024433,0,0,0,-83.671046,-144.442836,0,69.114166,0,0,10.999861,1,0,0,0,0,0,0,0,0,5,0,0,0
0.05,1439679.682,6144024.895,939121.7119,290.688523,-63.990718,-33.88654,0,0,0,0,-0.024433,-0.024433,-0.024433,-0.024433,0,0,0,-83.561548,-144.257186,0,69.113676,0,0,10.999783,1,0,0,0,0,0,0,0,0,6,0,0,0
0.06,1439682.588,6144024.255,939121.3731,290.62878,-64.015909,-33.886183,0,0,0,0,-0.024433,-0.024433,-0.024433,-0.024433,0,0,0,-83.452296,-144.07194,0,69.113076,0,0,10.999688,1,0,0,0,0,0,0,0,0,7,0,0,0
0.07,1439685.494,6144023.614,939121.0342,290.571374,-64.031481,-33.884351,0,0,0,0,-0.024433,-0.024433,-0.024433,-0.024433,0,0,0,-83.34329,-143.887098,0,69.112368,0,0,10.999575,1,0,0,0,0,0,0,0,0,8,0,0,0
0.08,1439688.399,6144022.974,939120.6954,290.515889,-64.039099,-33.8813,0,0,0,0,-0.024433,-0.024433,-0.024433,-0.024433,0,0,0,-83.234527,-143.702659,0,69.11155,0,0,10.999445,1,0,0,0,0,0,0,0,0,9,0,0,0
0.09,1439691.304,6144022.334,939120.3566,290.460463,-64.046801,-33.878269,0,0,0,0,-0.024433,-0.024433,-0.024433,-0.024433,0,0,0,-83.12601,-143.518623,0,69.110624,0,0,10.999297,1,0,0,0,0,0,0,0,0,10,0,0,0
0.1,1439694.208,6144021.693,939120.0179,290.405097,-64.054586,-33.875256,0,0,0,0,-0.024433,-0.024433,-0.024433,-0.024433,0,0,0,-83.017736,-143.334985,0,69.109588,0,0,10.999133,1,0,0,0,0,0,0,0,0,11,0,0,0
0.11,1439697.111,6144021.052,939119.6792,290.349792,-64.062454,-33.872263,0,0,0,0,-0.024433,-0.024433,-0.024433,-0.024433,0,0,0,-82.909704,-143.151747,0,69.108444,0,0,10.99895,1,0,0,0,0,0,0,0,0,12,0,0,0
0.12,1439700.014,6144020.412,939119.3405,290.294547,-64.070405,-33.869288,0,0,0,0,-0.024433,-0.024433,-0.024433,-0.024433,0,0,0,-82.801915,-142.968906,0,69.10719,0,0,10.998751,1,0,0,0,0,0,0,0,0,13,0,0,0
0.13,1439702.917,6144019.771,939119.0018,290.239363,-64.078439,-33.866333,0,0,0,0,-0.024433,-0.024433,-0.024433,-0.024433,0,0,0,-82.694366,-142.786461,0,69.105828,0,0,10.998534,1,0,0,0,0,0,0,0,0,14,0,0,0
0.14,1439705.818,6144019.13,939118.6632,290.18424,-64.086557,-33.863396,0,0,0,0,-0.024433,-0.024433,-0.024433,-0.024433,0,0,0,-82.587056,-142.604411,0,69.104356,0,0,10.9983,1,0,0,0,0,0,0,0,0,15,0,0,0
0.15,1439708.72,6144018.489,939118.3246,290.129179,-64.094757,-33.860479,0,0,0,0,-0.024433,-0.024433,-0.024433,-0.024433,0,0,0,-82.47999,-142.422757,0,69.102776,0,0,10.998048,1,0,0,0,0,0,0,0,0,16,0,0,0
0.16,1439711.62,6144017.848,939117.986,290.074179,-64.10304,-33.857581,0,0,0,0,-0.024433,-0.024433,-0.024433,-0.024433,0,0,0,-82.373159,-142.241494,0,69.101087,0,0,10.99778,1,0,0,0,0,0,0,0,0,17,0,0,0
0.17,1439714.521,6144017.207,939117.6474,290.019242,-64.111405,-33.854702,0,0,0,0,-0.024433,-0.024433,-0.024433,-0.024433,0,0,0,-82.266568,-142.060625,0,69.099288,0,0,10.997493,1,0,0,0,0,0,0,0,0,18,0,0,0
0.18,1439717.42,6144016.566,939117.3089,289.964366,-64.119853,-33.851842,0,0,0,0,-0.024433,-0.024433,-0.024433,-0.024433,0,0,0,-82.160213,-141.880146,0,69.097381,0,0,10.99719,1,0,0,0,0,0,0,0,0,19,0,0,0
0.19,1439720.319,6144015.924,939116.9704,289.909553,-64.128384,-33.849002,0,0,0,0,-0.024433,-0.024433,-0.024433,-0.024433,0,0,0,-82.054097,-141.700057,0,69.095365,0,0,10.996869,1,0,0,0,0,0,0,0,0,20,0,0,0
0.2,1439723.218,6144015.283,939116.632,289.854803,-64.136997,-33.84618,0,0,0,0,-0.024433,-0.024433,-0.024433,-0.024433,0,0,0,-81.948218,-141.520356,0,69.09324,0,0,10.996531,1,0,0,0,0,0,0,0,0,21,0,0,0
0.21,1439726.116,6144014.642,939116.2935,289.800115,-64.145693,-33.843378,0,0,0,0,-0.024433,-0.024433,-0.024433,-0.024433,0,0,0,-81.842572,-141.341041,0,69.091006,0,0,10.996175,1,0,0,0,0,0,0,0,0,22,0,0,0
0.22,1439729.013,6144014,939115.9551,289.745491,-64.15447,-33.840594,0,0,0,0,-0.024433,-0.024433,-0.024433,-0.024433,0,0,0,-81.737165,-141.162111,0,69.088663,0,0,10.995802,1,0,0,0,0,0,0,0,0,23,0,0,0
0.23,1439731.91,6144013.358,939115.6167,289.69093,-64.16333,-33.83783,0,0,0,0,-0.024433,-0.024433,-0.024433,-0.024433,0,0,0,-81.631988,-140.983571,0,69.086211,0,0,10.995412,1,0,0,0,0,0,0,0,0,24,0,0,0
0.24,1439734.807,6144012.717,939115.2784,289.636434,-64.172272,-33.835085,0,0,0,0,-0.024433,-0.024433,-0.024433,-0.024433,0,0,0,-81.527047,-140.805411,0,69.08365,0,0,10.995004,1,0,0,0,0,0,0,0,0,25,0,0,0
0.25,1439737.702,6144012.075,939114.9401,289.582001,-64.181297,-33.83236,0,0,0,0,-0.024433,-0.024433,-0.024433,-0.024433,0,0,0,-81.422339,-140.627636,0,69.080981,0,0,10.99458,1,0,0,0,0,0,0,0,0,26,0,0,0
0.26,1439740.598,6144011.433,939114.6018,289.527632,-64.190403,-33.829653,0,0,0,0,-0.024433,-0.024433,-0.024433,-0.024433,0,0,0,-81.31786,-140.450241,0,69.078202,0,0,10.994137,1,0,0,0,0,0,0,0,0,27,0,0,0
0.27,1439743.492,6144010.791,939114.2635,289.473329,-64.19959,-33.826966,0,0,0,0,-0.024433,-0.024433,-0.024433,-0.024433,0,0,0,-81.213615,-140.273226,0,69.075315,0,0,10.993678,1,0,0,0,0,0,0,0,0,28,0,0,0
0.28,1439746.387,6144010.149,939113.9253,289.41909,-64.20886,-33.824297,0,0,0,0,-0.024433,-0.024433,-0.024433,-0.024433,0,0,0,-81.109602,-140.096592,0,69.072319,0,0,10.993201,1,0,0,0,0,0,0,0,0,29,0,0,0
0.29,1439749.28,6144009.507,939113.587,289.364916,-64.218211,-33.821648,0,0,0,0,-0.024433,-0.024433,-0.024433,-0.024433,0,0,0,-81.00582,-139.920336,0,69.069214,0,0,10.992707,1,0,0,0,0,0,0,0,0,30,0,0,0
0.3,1439752.173,6144008.864,939113.2489,289.310807,-64.227644,-33.819019,0,0,0,0,-0.024433,-0.024433,-0.024433,-0.024433,0,0,0,-80.902263,-139.74446,0,69.066,0,0,10.992195,1,0,0,0,0,0,0,0,0,31,0,0,0
0.31,1439755.066,6144008.222,939112.9107,289.256764,-64.237158,-33.816408,0,0,0,0,-0.024433,-0.024433,-0.024433,-0.024433,0,0,0,-80.79894,-139.568955,0,69.062677,0,0,10.991666,1,0,0,0,0,0,0,0,0,32,0,0,0
0.32,1439757.958,6144007.58,939112.5726,289.202787,-64.246754,-33.813816,0,0,0,0,-0.024433,-0.024433,-0.024433,-0.024433,0,0,0,-80.695842,-139.39383,0,69.059245,0,0,10.99112,1,0,0,0,0,0,0,0,0,33,0,0,0
0.33,1439760.849,6144006.937,939112.2344,289.148876,-64.256431,-33.811244,0,0,0,0,-0.024433,-0.024433,-0.024433,-0.024433,0,0,0,-80.592972,-139.219076,0,69.055705,0,0,10.990557,1,0,0,0,0,0,0,0,0,34,0,0,0
0.34,1439763.74,6144006.294,939111.8964,289.095032,-64.266189,-33.808691,0,0,0,0,-0.024433,-0.024433,-0.024433,-0.024433,0,0,0,-80.490331,-139.044696,0,69.052056,0,0,10.989976,1,0,0,0,0,0,0,0,0,35,0,0,0
0.35,1439766.631,6144005.652,939111.5583,289.041254,-64.276029,-33.806157,0,0,0,0,-0.024433,-0.024433,-0.024433,-0.024433,0,0,0,-80.387916,-138.870687,0,69.048298,0,0,10.989378,1,0,0,0,0,0,0,0,0,36,0,0,0
0.36,1439769.521,6144005.009,939111.2203,288.987544,-64.285949,-33.803643,0,0,0,0,-0.024433,-0.024433,-0.024433,-0.024433,0,0,0,-80.285724,-138.697048,0,69.044432,0,0,10.988763,1,0,0,0,0,0,0,0,0,37,0,0,0
0.37,1439772.41,6144004.366,939110.8822,288.9339,-64.29595,-33.801148,0,0,0,0,-0.024433,-0.024433,-0.024433,-0.024433,0,0,0,-80.183759,-138.523781,0,69.040456,0,0,10.98813,1,0,0,0,0,0,0,0,0,38,0,0,0
0.38,1439775.299,6144003.723,939110.5443,288.880324,-64.306032,-33.798671,0,0,0,0,-0.024433,-0.024433,-0.024433,-0.024433,0,0,0,-80.082017,-138.35088,0,69.036372,0,0,10.98748,1,0,0,0,0,0,0,0,0,39,0,0,0
0.39,1439778.187,6144003.08,939110.2063,288.826816,-64.316195,-33.796215,0,0,0,0,-0.024433,-0.024433,-0.024433,-0.024433,0,0,0,-79.980501,-138.178351,0,69.032179,0,0,10.986813,1,0,0,0,0,0,0,0,0,40,0,0,0
0.4,1439781.075,6144002.436,939109.8684,288.773375,-64.326438,-33.793777,0,0,0,0,-0.024433,-0.024433,-0.024433,-0.024433,0,0,0,-79.879209,-138.006185,0,69.027878,0,0,10.986128,1,0,0,0,0,0,0,0,0,41,0,0,0
0.41,1439783.962,6144001.793,939109.5304,288.720003,-64.336762,-33.791359,0,0,0,0,-0.024433,-0.024433,-0.024433,-0.024433,0,0,0,-79.778136,-137.834384,0,69.023468,0,0,10.985426,1,0,0,0,0,0,0,0,0,42,0,0,0
0.42,1439786.849,6144001.15,939109.1926,288.666699,-64.347167,-33.788959,0,0,0,0,-0.024433,-0.024433,-0.024433,-0.024433,0,0,0,-79.677286,-137.662951,0,69.018949,0,0,10.984707,1,0,0,0,0,0,0,0,0,43,0,0,0
0.43,1439789.735,6144000.506,939108.8547,288.613464,-64.357652,-33.78658,0,0,0,0,-0.024433,-0.024433,-0.024433,-0.024433,0,0,0,-79.576659,-137.491878,0,69.014322,0,0,10.98397,1,0,0,0,0,0,0,0,0,44,0,0,0
0.44,1439792.62,6143999.862,939108.5168,288.560298,-64.368217,-33.784219,0,0,0,0,-0.024433,-0.024433,-0.024433,-0.024433,0,0,0,-79.476249,-137.321169,0,69.009586,0,0,10.983217,1,0,0,0,0,0,0,0,0,45,0,0,0
0.45,1439795.506,6143999.218,939108.179,288.507202,-64.378862,-33.781878,0,0,0,0,-0.024433,-0.024433,-0.024433,-0.024433,0,0,0,-79.376062,-137.150821,0,69.004741,0,0,10.982446,1,0,0,0,0,0,0,0,0,46,0,0,0
0.46,1439798.39,6143998.575,939107.8412,288.454175,-64.389587,-33.779556,0,0,0,0,-0.024433,-0.024433,-0.024433,-0.024433,0,0,0,-79.276095,-136.980831,0,68.999788,0,0,10.981657,1,0,0,0,0,0,0,0,0,47,0,0,0
0.47,1439801.274,6143997.931,939107.5035,288.401217,-64.400392,-33.777253,0,0,0,0,-0.024433,-0.024433,-0.024433,-0.024433,0,0,0,-79.176344,-136.811202,0,68.994726,0,0,10.980852,1,0,0,0,0,0,0,0,0,48,0,0,0
0.48,1439804.158,6143997.286,939107.1657,288.34833,-64.411278,-33.774969,0,0,0,0,-0.024433,-0.024433,-0.024433,-0.024433,0,0,0,-79.076814,-136.64193,0,68.989556,0,0,10.980029,1,0,0,0,0,0,0,0,0,49,0,0,0
0.49,1439807.041,6143996.642,939106.828,288.295513,-64.422242,-33.772705,0,0,0,0,-0.024433,-0.024433,-0.024433,-0.024433,0,0,0,-78.977499,-136.473019,0,68.984277,0,0,10.979189,1,0,0,0,0,0,0,0,0,50,0,0,0
0.5,1439809.923,6143995.998,939106.4903,288.242766,-64.433287,-33.77046,0,0,0,0,-0.024433,-0.024433,-0.024433,-0.024433,0,0,0,-78.878401,-136.30446,0,68.97889,0,0,10.978331,1,0,0,0,0,0,0,0,0,51,0,0,0
0.51,1439812.805,6143995.353,939106.1526,288.19009,-64.444411,-33.768234,0,0,0,0,-0.024433,-0.024433,-0.024433,-0.024433,0,0,0,-78.77952,-136.136258,0,68.973394,0,0,10.977457,1,0,0,0,0,0,0,0,0,52,0,0,0
0.52,1439815.686,6143994.709,939105.8149,288.137486,-64.455615,-33.766028,0,0,0,0,-0.024433,-0.024433,-0.024433,-0.024433,0,0,0,-78.680856,-135.96841,0,68.96779,0,0,10.976565,1,0,0,0,0,0,0,0,0,53,0,0,0
0.53,1439818.567,6143994.064,939105.4773,288.084952,-64.466897,-33.76384,0,0,0,0,-0.024433,-0.024433,-0.024433,-0.024433,0,0,0,-78.582407,-135.800916,0,68.962077,0,0,10.975655,1,0,0,0,0,0,0,0,0,54,0,0,0
0.54,1439821.447,6143993.419,939105.1397,288.03249,-64.47826,-33.761672,0,0,0,0,-0.024433,-0.024433,-0.024433,-0.024433,0,0,0,-78.484172,-135.633771,0,68.956256,0,0,10.974729,1,0,0,0,0,0,0,0,0,55,0,0,0
0.55,1439824.327,6143992.775,939104.8021,287.9801,-64.489701,-33.759524,0,0,0,0,-0.024433,-0.024433,-0.024433,-0.024433,0,0,0,-78.386151,-135.466979,0,68.950326,0,0,10.973785,1,0,0,0,0,0,0,0,0,56,0,0,0
0.56,1439827.206,6143992.13,939104.4645,287.927782,-64.501221,-33.757395,0,0,0,0,-0.024433,-0.024433,-0.024433,-0.024433,0,0,0,-78.288339,-135.300539,0,68.944288,0,0,10.972824,1,0,0,0,0,0,0,0,0,57,0,0,0
0.57,1439830.085,6143991.484,939104.127,287.875537,-64.512821,-33.755285,0,0,0,0,-0.024433,-0.024433,-0.024433,-0.024433,0,0,0,-78.190744,-135.134447,0,68.938142,0,0,10.971846,1,0,0,0,0,0,0,0,0,58,0,0,0
0.58,1439832.963,6143990.839,939103.7894,287.823364,-64.524499,-33.753194,0,0,0,0,-0.024433,-0.024433,-0.024433,-0.024433,0,0,0,-78.093362,-134.968702,0,68.931888,0,0,10.970851,1,0,0,0,0,0,0,0,0,59,0,0,0
0.59,1439835.841,6143990.194,939103.4519,287.771263,-64.536256,-33.751122,0,0,0,0,-0.024433,-0.024433,-0.024433,-0.024433,0,0,0,-77.99619,-134.803302,0,68.925525,0,0,10.969838,1,0,0,0,0,0,0,0,0,60,0,0,0
0.6,1439838.718,6143989.548,939103.1144,287.719236,-64.548091,-33.74907,0,0,0,0,-0.024433,-0.024433,-0.024433,-0.024433,0,0,0,-77.899228,-134.638252,0,68.919054,0,0,10.968808,1,0,0,0,0,0,0,0,0,61,0,0,0
0.61,1439841.595,6143988.903,939102.777,287.667282,-64.560005,-33.747037,0,0,0,0,-0.024433,-0.024433,-0.024433,-0.024433,0,0,0,-77.802476,-134.473544,0,68.912474,0,0,10.967761,1,0,0,0,0,0,0,0,0,62,0,0,0
0.62,1439844.471,6143988.257,939102.4395,287.615402,-64.571998,-33.745024,0,0,0,0,-0.024433,-0.024433,-0.024433,-0.024433,0,0,0,-77.705934,-134.309181,0,68.905787,0,0,10.966697,1,0,0,0,0,0,0,0,0,63,0,0,0
0.63,1439847.347,6143987.611,939102.1021,287.563595,-64.584069,-33.74303,0,0,0,0,-0.024433,-0.024433,-0.024433,-0.024433,0,0,0,-77.609602,-134.145162,0,68.898991,0,0,10.965615,1,0,0,0,0,0,0,0,0,64,0,0,0
0.64,1439850.222,6143986.965,939101.7647,287.511863,-64.596218,-33.741055,0,0,0,0,-0.024433,-0.024433,-0.024433,-0.024433,0,0,0,-77.51348,-133.981487,0,68.892087,0,0,10.964516,1,0,0,0,0,0,0,0,0,65,0,0,0
0.65,1439853.097,6143986.319,939101.4273,287.460205,-64.608445,-33.739099,0,0,0,0,-0.024433,-0.024433,-0.024433,-0.024433,0,0,0,-77.417562,-133.818151,0,68.885075,0,0,10.9634,1,0,0,0,0,0,0,0,0,66,0,0,0
0.66,1439855.971,6143985.673,939101.0899,287.408621,-64.62075,-33.737163,0,0,0,0,-0.024433,-0.024433,-0.024433,-0.024433,0,0,0,-77.321856,-133.655155,0,68.877954,0,0,10.962267,1,0,0,0,0,0,0,0,0,67,0,0,0
0.67,1439858.844,6143985.027,939100.7526,287.357113,-64.633133,-33.735246,0,0,0,0,-0.024433,-0.024433,-0.024433,-0.024433,0,0,0,-77.226354,-133.492501,0,68.870726,0,0,10.961116,1,0,0,0,0,0,0,0,0,68,0,0,0
0.68,1439861.717,6143984.38,939100.4152,287.305679,-64.645594,-33.733348,0,0,0,0,-0.024433,-0.024433,-0.024433,-0.024433,0,0,0,-77.131059,-133.330181,0,68.86339,0,0,10.959949,1,0,0,0,0,0,0,0,0,69,0,0,0
0.69,1439864.59,6143983.734,939100.0779,287.254321,-64.658132,-33.731469,0,0,0,0,-0.024433,-0.024433,-0.024433,-0.024433,0,0,0,-77.035967,-133.168203,0,68.855945,0,0,10.958764,1,0,0,0,0,0,0,0,0,70,0,0,0
0.7,1439867.462,6143983.087,939099.7406,287.203038,-64.670748,-33.72961,0,0,0,0,-0.024433,-0.024433,-0.024433,-0.024433,0,0,0,-76.941082,-133.006556,0,68.848393,0,0,10.957562,1,0,0,0,0,0,0,0,0,71,0,0,0
0.71,1439870.333,6143982.44,939099.4033,287.151831,-64.683442,-33.72777,0,0,0,0,-0.024433,-0.024433,-0.024433,-0.024433,0,0,0,-76.846403,-132.84525,0,68.840732,0,0,10.956343,1,0,0,0,0,0,0,0,0,72,0,0,0
0.72,1439873.204,6143981.793,939099.0661,287.1007,-64.696212,-33.72595,0,0,0,0,-0.024433,-0.024433,-0.024433,-0.024433,0,0,0,-76.751925,-132.684276,0,68.832964,0,0,10.955106,1,0,0,0,0,0,0,0,0,73,0,0,0
0.73,1439876.075,6143981.146,939098.7288,287.049646,-64.70906,-33.724149,0,0,0,0,-0.024433,-0.024433,-0.024433,-0.024433,0,0,0,-76.657653,-132.523636,0,68.825088,0,0,10.953853,1,0,0,0,0,0,0,0,0,74,0,0,0
0.74,1439878.945,6143980.499,939098.3916,286.998668,-64.721985,-33.722367,0,0,0,0,-0.024433,-0.024433,-0.024433,-0.024433,0,0,0,-76.563582,-132.363328,0,68.817103,0,0,10.952582,1,0,0,0,0,0,0,0,0,75,0,0,0
0.75,1439881.814,6143979.851,939098.0544,286.947767,-64.734988,-33.720604,0,0,0,0,-0.024433,-0.024433,-0.024433,-0.024433,0,0,0,-76.469714,-132.203351,0,68.809011,0,0,10.951294,1,0,0,0,0,0,0,0,0,76,0,0,0
0.76,1439884.683,6143979.204,939097.7172,286.896943,-64.748067,-33.718861,0,0,0,0,-0.024433,-0.024433,-0.024433,-0.024433,0,0,0,-76.376049,-132.043708,0,68.800812,0,0,10.949989,1,0,0,0,0,0,0,0,0,77,0,0,0
0.77,1439887.552,6143978.556,939097.38,286.846196,-64.761223,-33.717137,0,0,0,0,-0.024433,-0.024433,-0.024433,-0.024433,0,0,0,-76.282584,-131.884391,0,68.792504,0,0,10.948667,1,0,0,0,0,0,0,0,0,78,0,0,0
0.78,1439890.42,6143977.909,939097.0429,286.795527,-64.774455,-33.715432,0,0,0,0,-0.024433,-0.024433,-0.024433,-0.024433,0,0,0,-76.18932,-131.725408,0,68.784088,0,0,10.947328,1,0,0,0,0,0,0,0,0,79,0,0,0
0.79,1439893.287,6143977.261,939096.7057,286.744935,-64.787764,-33.713747,0,0,0,0,-0.024433,-0.024433,-0.024433,-0.024433,0,0,0,-76.096256,-131.56675,0,68.775565,0,0,10.945971,1,0,0,0,0,0,0,0,0,80,0,0,0
0.8,1439896.154,6143976.613,939096.3686,286.694422,-64.801149,-33.712081,0,0,0,0,-0.024433,-0.024433,-0.024433,-0.024433,0,0,0,-76.003388,-131.408416,0,68.766934,0,0,10.944597,1,0,0,0,0,0,0,0,0,81,0,0,0
0.81,1439899.021,6143975.965,939096.0315,286.643986,-64.814611,-33.710434,0,0,0,0,-0.024433,-0.024433,-0.024433,-0.024433,0,0,0,-75.910724,-131.250411,0,68.758196,0,0,10.943207,1,0,0,0,0,0,0,0,0,82,0,0,0
0.82,1439901.886,6143975.316,939095.6944,286.59363,-64.828149,-33.708807,0,0,0,0,-0.024433,-0.024433,-0.024433,-0.024433,0,0,0,-75.818257,-131.092734,0,68.74935,0,0,10.941799,1,0,0,0,0,0,0,0,0,83,0,0,0
0.83,1439904.752,6143974.668,939095.3574,286.543352,-64.841763,-33.707199,0,0,0,0,-0.024433,-0.024433,-0.024433,-0.024433,0,0,0,-75.725987,-130.935378,0,68.740396,0,0,10.940374,1,0,0,0,0,0,0,0,0,84,0,0,0
0.84,1439907.617,6143974.019,939095.0203,286.493153,-64.855453,-33.70561,0,0,0,0,-0.024433,-0.024433,-0.024433,-0.024433,0,0,0,-75.633913,-130.778347,0,68.731335,0,0,10.938932,1,0,0,0,0,0,0,0,0,85,0,0,0
0.85,1439910.481,6143973.371,939094.6833,286.443034,-64.869219,-33.70404,0,0,0,0,-0.024433,-0.024433,-0.024433,-0.024433,0,0,0,-75.542037,-130.621638,0,68.722166,0,0,10.937472,1,0,0,0,0,0,0,0,0,86,0,0,0
0.86,1439913.345,6143972.722,939094.3462,286.392993,-64.883061,-33.70249,0,0,0,0,-0.024433,-0.024433,-0.024433,-0.024433,0,0,0,-75.450357,-130.46525,0,68.712889,0,0,10.935996,1,0,0,0,0,0,0,0,0,87,0,0,0
0.87,1439916.209,6143972.073,939094.0092,286.343033,-64.896978,-33.700959,0,0,0,0,-0.024433,-0.024433,-0.024433,-0.024433,0,0,0,-75.358874,-130.309184,0,68.703506,0,0,10.934503,1,0,0,0,0,0,0,0,0,88,0,0,0
0.88,1439919.072,6143971.424,939093.6722,286.293153,-64.910971,-33.699448,0,0,0,0,-0.024433,-0.024433,-0.024433,-0.024433,0,0,0,-75.267584,-130.153436,0,68.694014,0,0,10.932992,1,0,0,0,0,0,0,0,0,89,0,0,0
0.89,1439921.934,6143970.774,939093.3353,286.243353,-64.925039,-33.697955,0,0,0,0,-0.024433,-0.024433,-0.024433,-0.024433,0,0,0,-75.176489,-129.998009,0,68.684416,0,0,10.931464,1,0,0,0,0,0,0,0,0,90,0,0,0
0.9,1439924.796,6143970.125,939092.9983,286.193633,-64.939182,-33.696482,0,0,0,0,-0.024433,-0.024433,-0.024433,-0.024433,0,0,0,-75.08559,-129.842901,0,68.67471,0,0,10.92992,1,0,0,0,0,0,0,0,0,91,0,0,0
0.91,1439927.657,6143969.475,939092.6613,286.143994,-64.953401,-33.695029,0,0,0,0,-0.024433,-0.024433,-0.024433,-0.024433,0,0,0,-74.994881,-129.688108,0,68.664897,0,0,10.928358,1,0,0,0,0,0,0,0,0,92,0,0,0
0.92,1439930.518,6143968.826,939092.3244,286.094435,-64.967694,-33.693594,0,0,0,0,-0.024433,-0.024433,-0.024433,-0.024433,0,0,0,-74.904369,-129.533633,0,68.654976,0,0,10.926779,1,0,0,0,0,0,0,0,0,93,0,0,0
0.93,1439933.379,6143968.176,939091.9875,286.044959,-64.982063,-33.692179,0,0,0,0,-0.024433,-0.024433,-0.024433,-0.024433,0,0,0,-74.820367,-129.386645,0,68.644948,0,0,10.925183,1,0,0,0,0,0,0,0,0,94,0,0,0
0.94,1439936.239,6143967.526,939091.6506,285.995563,-64.996506,-33.690783,0,0,0,0,-0.024433,-0.024433,-0.024433,-0.024433,0,0,0,-74.749917,-129.255119,0,68.634814,0,0,10.92357,1,0,0,0,0,0,0,0,0,95,0,0,0
0.95,1439939.098,6143966.876,939091.3137,285.946249,-65.011024,-33.689407,0,0,0,0,-0.024433,-0.024433,-0.024433,-0.024433,0,0,0,-74.679569,-129.123787,0,68.624571,0,0,10.92194,1,0,0,0,0,0,0,0,0,96,0,0,0
0.96,1439941.957,6143966.226,939090.9768,285.897017,-65.025616,-33.688049,0,0,0,0,-0.024433,-0.024433,-0.024433,-0.024433,0,0,0,-74.609323,-128.992645,0,68.614222,0,0,10.920293,1,0,0,0,0,0,0,0,0,97,0,0,0
0.97,1439944.816,6143965.575,939090.6399,285.847868,-65.040283,-33.686711,0,0,0,0,-0.024433,-0.024433,-0.024433,-0.024433,0,0,0,-74.539179,-128.861691,0,68.603766,0,0,10.918628,1,0,0,0,0,0,0,0,0,98,0,0,0
0.98,1439947.674,6143964.925,939090.3031,285.7988,-65.055024,-33.685393,0,0,0,0,-0.024433,-0.024433,-0.024433,-0.024433,0,0,0,-74.46914,-128.730929,0,68.593203,0,0,10.916947,1,0,0,0,0,0,0,0,0,99,0,0,0
0.99,1439950.531,6143964.274,939089.9662,285.749815,-65.06984,-33.684093,0,0,0,0,-0.024433,-0.024433,-0.024433,-0.024433,0,0,0,-74.399199,-128.600355,0,68.582532,0,0,10.915249,1,0,0,0,0,0,0,0,0,100,0,0,0
1,1439953.388,6143963.623,939089.6294,285.700913,-65.084729,-33.682813,0,0,0,0,-0.024433,-0.024433,-0.024433,-0.024433,0,0,0,-74.329359,-128.469971,0,68.571755,0,0,10.913534,1,0,0,0,0,0,0,0,0,101,0,0,0
1.01,1439956.245,6143962.972,939089.2926,285.652094,-65.099692,-33.681552,0,0,0,0,-0.024433,-0.024433,-0.024433,-0.024433,0,0,0,-74.259622,-128.339774,0,68.560871,0,0,10.911802,1,0,0,0,0,0,0,0,0,102,0,0,0
1.02,1439959.101,6143962.321,939088.9558,285.603358,-65.114729,-33.68031,0,0,0,0,-0.024433,-0.024433,-0.024433,-0.024433,0,0,0,-74.189983,-128.209768,0,68.54988,0,0,10.910052,1,0,0,0,0,0,0,0,0,103,0,0,0
1.03,1439961.956,6143961.67,939088.619,285.554706,-65.12984,-33.679088,0,0,0,0,-0.024433,-0.024433,-0.024433,-0.024433,0,0,0,-74.120449,-128.079948,0,68.538782,0,0,10.908286,1,0,0,0,0,0,0,0,0,104,0,0,0
1.04,1439964.811,6143961.018,939088.2822,285.506138,-65.145024,-33.677885,0,0,0,0,-0.024433,-0.024433,-0.024433,-0.024433,0,0,0,-74.051013,-127.950316,0,68.527577,0,0,10.906503,1,0,0,0,0,0,0,0,0,105,0,0,0
1.05,1439967.666,6143960.367,939087.9455,285.457653,-65.160282,-33.676701,0,0,0,0,-0.024433,-0.024433,-0.024433,-0.024433,0,0,0,-73.981679,-127.82087,0,68.516266,0,0,10.904702,1,0,0,0,0,0,0,0,0,106,0,0,0
1.06,1439970.52,6143959.715,939087.6087,285.409253,-65.175613,-33.675536,0,0,0,0,-0.024433,-0.024433,-0.024433,-0.024433,0,0,0,-73.912443,-127.691615,0,68.504848,0,0,10.902885,1,0,0,0,0,0,0,0,0,107,0,0,0
1.07,1439973.374,6143959.063,939087.272,285.360937,-65.191017,-33.674391,0,0,0,0,-0.024433,-0.024433,-0.024433,-0.024433,0,0,0,-73.843309,-127.562544,0,68.493323,0,0,10.901051,1,0,0,0,0,0,0,0,0,108,0,0,0
1.08,1439976.227,6143958.411,939086.9352,285.312707,-65.206494,-33.673265,0,0,0,0,-0.024433,-0.024433,-0.024433,-0.024433,0,0,0,-73.774277,-127.433659,0,68.481692,0,0,10.8992,1,0,0,0,0,0,0,0,0,109,0,0,0
1.09,1439979.079,6143957.759,939086.5985,285.264561,-65.222044,-33.672158,0,0,0,0,-0.024433,-0.024433,-0.024433,-0.024433,0,0,0,-73.705344,-127.304961,0,68.469954,0,0,10.897332,1,0,0,0,0,0,0,0,0,110,0,0,0
1.1,1439981.932,6143957.106,939086.2618,285.2165,-65.237667,-33.67107,0,0,0,0,-0.024433,-0.024433,-0.024433,-0.024433,0,0,0,-73.636508,-127.176451,0,68.458109,0,0,10.895446,1,0,0,0,0,0,0,0,0,111,0,0,0
1.11,1439984.783,6143956.454,939085.9251,285.168524,-65.253362,-33.670002,0,0,0,0,-0.024433,-0.024433,-0.024433,-0.024433,0,0,0,-73.567775,-127.048127,0,68.446158,0,0,10.893544,1,0,0,0,0,0,0,0,0,112,0,0,0
1.12,1439987.634,6143955.801,939085.5884,285.120634,-65.26913,-33.668953,0,0,0,0,-0.024433,-0.024433,-0.024433,-0.024433,0,0,0,-73.499139,-126.919988,0,68.434101,0,0,10.891625,1,0,0,0,0,0,0,0,0,113,0,0,0
1.13,1439990.485,6143955.148,939085.2517,285.072831,-65.28497,-33.667923,0,0,0,0,-0.024433,-0.024433,-0.024433,-0.024433,0,0,0,-73.430606,-126.792032,0,68.421937,0,0,10.889689,1,0,0,0,0,0,0,0,0,114,0,0,0
1.14,1439993.335,6143954.495,939084.9151,285.025113,-65.300883,-33.666912,0,0,0,0,-0.024433,-0.024433,-0.024433,-0.024433,0,0,0,-73.362171,-126.664263,0,68.409667,0,0,10.887737,1,0,0,0,0,0,0,0,0,115,0,0,0
1.15,1439996.185,6143953.842,939084.5784,284.977481,-65.316868,-33.665921,0,0,0,0,-0.024433,-0.024433,-0.024433,-0.024433,0,0,0,-73.293834,-126.536677,0,68.397291,0,0,10.885767,1,0,0,0,0,0,0,0,0,116,0,0,0
1.16,1439999.034,6143953.189,939084.2417,284.929937,-65.332924,-33.664948,0,0,0,0,-0.024433,-0.024433,-0.024433,-0.024433,0,0,0,-73.225596,-126.409276,0,68.384808,0,0,10.88378,1,0,0,0,0,0,0,0,0,117,0,0,0
1.17,1440001.883,6143952.535,939083.9051,284.882478,-65.349053,-33.663995,0,0,0,0,-0.024433,-0.024433,-0.024433,-0.024433,0,0,0,-73.15746,-126.282058,0,68.372219,0,0,10.881777,1,0,0,0,0,0,0,0,0,118,0,0,0
1.18,1440004.732,6143951.882,939083.5685,284.835107,-65.365253,-33.663061,0,0,0,0,-0.024433,-0.024433,-0.024433,-0.024433,0,0,0,-73.089422,-126.155024,0,68.359524,0,0,10.879756,1,0,0,0,0,0,0,0,0,119,0,0,0
1.19,1440007.58,6143951.228,939083.2319,284.787824,-65.381525,-33.662146,0,0,0,0,-0.024433,-0.024433,-0.024433,-0.024433,0,0,0,-73.021479,-126.028173,0,68.346723,0,0,10.877719,1,0,0,0,0,0,0,0,0,120,0,0,0
1.2,1440010.427,6143950.574,939082.8952,284.740627,-65.397868,-33.661251,0,0,0,0,-0.024433,-0.024433,-0.024433,-0.024433,0,0,0,-72.953638,-125.901507,0,68.333816,0,0,10.875665,1,0,0,0,0,0,0,0,0,121,0,0,0
1.21,1440013.274,6143949.92,939082.5586,284.693518,-65.414283,-33.660375,0,0,0,0,-0.024433,-0.024433,-0.024433,-0.024433,0,0,0,-72.885895,-125.775024,0,68.320803,0,0,10.873594,1,0,0,0,0,0,0,0,0,122,0,0,0
1.22,1440016.12,6143949.265,939082.222,284.646498,-65.430768,-33.659517,0,0,0,0,-0.024433,-0.024433,-0.024433,-0.024433,0,0,0,-72.818247,-125.648721,0,68.307684,0,0,10.871506,1,0,0,0,0,0,0,0,0,123,0,0,0
1.23,1440018.966,6143948.611,939081.8855,284.599565,-65.447325,-33.65868,0,0,0,0,-0.024433,-0.024433,-0.024433,-0.024433,0,0,0,-72.750701,-125.522602,0,68.294459,0,0,10.869401,1,0,0,0,0,0,0,0,0,124,0,0,0
1.24,1440021.812,6143947.956,939081.5489,284.552721,-65.463953,-33.657861,0,0,0,0,-0.024433,-0.024433,-0.024433,-0.024433,0,0,0,-72.68325,-125.396664,0,68.281129,0,0,10.867279,1,0,0,0,0,0,0,0,0,125,0,0,0
1.25,1440024.657,6143947.301,939081.2123,284.505966,-65.480652,-33.657061,0,0,0,0,-0.024433,-0.024433,-0.024433,-0.024433,0,0,0,-72.615898,-125.27091,0,68.267692,0,0,10.865141,1,0,0,0,0,0,0,0,0,126,0,0,0
1.26,1440027.502,6143946.646,939080.8757,284.459299,-65.497421,-33.656281,0,0,0,0,-0.024433,-0.024433,-0.024433,-0.024433,0,0,0,-72.548644,-125.145335,0,68.25415,0,0,10.862985,1,0,0,0,0,0,0,0,0,127,0,0,0
1.27,1440030.346,6143945.991,939080.5392,284.412721,-65.514261,-33.655519,0,0,0,0,-0.024433,-0.024433,-0.024433,-0.024433,0,0,0,-72.481489,-125.019942,0,68.240502,0,0,10.860813,1,0,0,0,0,0,0,0,0,128,0,0,0
1.28,1440033.189,6143945.336,939080.2026,284.366233,-65.531171,-33.654777,0,0,0,0,-0.024433,-0.024433,-0.024433,-0.024433,0,0,0,-72.414428,-124.894728,0,68.226748,0,0,10.858624,1,0,0,0,0,0,0,0,0,129,0,0,0
1.29,1440036.032,6143944.681,939079.8661,284.319834,-65.548151,-33.654054,0,0,0,0,-0.024433,-0.024433,-0.024433,-0.024433,0,0,0,-72.347466,-124.769696,0,68.212889,0,0,10.856418,1,0,0,0,0,0,0,0,0,130,0,0,0
1.3,1440038.875,6143944.025,939079.5296,284.273525,-65.565201,-33.65335,0,0,0,0,-0.024433,-0.024433,-0.024433,-0.024433,0,0,0,-72.280603,-124.644843,0,68.198924,0,0,10.854196,1,0,0,0,0,0,0,0,0,131,0,0,0
1.31,1440041.718,6143943.369,939079.193,284.227305,-65.582322,-33.652665,0,0,0,0,-0.024433,-0.024433,-0.024433,-0.024433,0,0,0,-72.213834,-124.520171,0,68.184854,0,0,10.851957,1,0,0,0,0,0,0,0,0,132,0,0,0
1.32,1440044.559,6143942.713,939078.8565,284.181176,-65.599512,-33.652,0,0,0,0,-0.024433,-0.024433,-0.024433,-0.024433,0,0,0,-72.147164,-124.39568,0,68.170679,0,0,10.849701,1,0,0,0,0,0,0,0,0,133,0,0,0
1.33,1440047.401,6143942.057,939078.52,284.135138,-65.616772,-33.651353,0,0,0,0,-0.024433,-0.024433,-0.024433,-0.024433,0,0,0,-72.08059,-124.271366,0,68.156398,0,0,10.847428,1,0,0,0,0,0,0,0,0,134,0,0,0
1.34,1440050.242,6143941.401,939078.1835,284.08919,-65.634101,-33.650726,0,0,0,0,-0.024433,-0.024433,-0.024433,-0.024433,0,0,0,-72.014113,-124.147232,0,68.142011,0,0,10.845138,1,0,0,0,0,0,0,0,0,135,0,0,0
1.35,1440053.082,6143940.744,939077.847,284.043333,-65.6515,-33.650117,0,0,0,0,-0.024433,-0.024433,-0.024433,-0.024433,0,0,0,-71.947732,-124.023278,0,68.12752,0,0,10.842832,1,0,0,0,0,0,0,0,0,136,0,0,0
1.36,1440055.922,6143940.087,939077.5105,283.997567,-65.668968,-33.649528,0,0,0,0,-0.024433,-0.024433,-0.024433,-0.024433,0,0,0,-71.881446,-123.899502,0,68.112923,0,0,10.840508,1,0,0,0,0,0,0,0,0,137,0,0,0
1.37,1440058.761,6143939.43,939077.174,283.951892,-65.686505,-33.648958,0,0,0,0,-0.024433,-0.024433,-0.024433,-0.024433,0,0,0,-71.815255,-123.775903,0,68.098221,0,0,10.838168,1,0,0,0,0,0,0,0,0,138,0,0,0
1.38,1440061.601,6143938.773,939076.8375,283.906309,-65.704111,-33.648407,0,0,0,0,-0.024433,-0.024433,-0.024433,-0.024433,0,0,0,-71.749162,-123.652481,0,68.083414,0,0,10.835812,1,0,0,0,0,0,0,0,0,139,0,0,0
1.39,1440064.439,6143938.116,939076.501,283.860817,-65.721786,-33.647875,0,0,0,0,-0.024433,-0.024433,-0.024433,-0.024433,0,0,0,-71.683165,-123.52924,0,68.068502,0,0,10.833439,1,0,0,0,0,0,0,0,0,140,0,0,0
1.4,1440067.277,6143937.459,939076.1646,283.815418,-65.73953,-33.647362,0,0,0,0,-0.024433,-0.024433,-0.024433,-0.024433,0,0,0,-71.617266,-123.406172,0,68.053485,0,0,10.831049,1,0,0,0,0,0,0,0,0,141,0,0,0
1.41,1440070.115,6143936.801,939075.8281,283.77011,-65.757342,-33.646868,0,0,0,0,-0.024433,-0.024433,-0.024433,-0.024433,0,0,0,-71.551459,-123.283285,0,68.038363,0,0,10.828642,1,0,0,0,0,0,0,0,0,142,0,0,0
1.42,1440072.952,6143936.143,939075.4916,283.724896,-65.775223,-33.646394,0,0,0,0,-0.024433,-0.024433,-0.024433,-0.024433,0,0,0,-71.48575,-123.160572,0,68.023137,0,0,10.826218,1,0,0,0,0,0,0,0,0,143,0,0,0
1.43,1440075.789,6143935.486,939075.1552,283.679773,-65.793172,-33.645938,0,0,0,0,-0.024433,-0.024433,-0.024433,-0.024433,0,0,0,-71.420134,-123.038035,0,68.007805,0,0,10.823778,1,0,0,0,0,0,0,0,0,144,0,0,0
1.44,1440078.625,6143934.827,939074.8187,283.634744,-65.811189,-33.645501,0,0,0,0,-0.024433,-0.024433,-0.024433,-0.024433,0,0,0,-71.354615,-122.915677,0,67.992369,0,0,10.821322,1,0,0,0,0,0,0,0,0,145,0,0,0
1.45,1440081.461,6143934.169,939074.4823,283.589808,-65.829274,-33.645083,0,0,0,0,-0.024433,-0.024433,-0.024433,-0.024433,0,0,0,-71.289189,-122.793495,0,67.976828,0,0,10.818848,1,0,0,0,0,0,0,0,0,146,0,0,0
1.46,1440084.297,6143933.511,939074.1458,283.544964,-65.847426,-33.644685,0,0,0,0,-0.024433,-0.024433,-0.024433,-0.024433,0,0,0,-71.223861,-122.671487,0,67.961182,0,0,10.816358,1,0,0,0,0,0,0,0,0,147,0,0,0
1.47,1440087.132,6143932.852,939073.8094,283.500215,-65.865647,-33.644305,0,0,0,0,-0.024433,-0.024433,-0.024433,-0.024433,0,0,0,-71.158624,-122.549653,0,67.945432,0,0,10.813851,1,0,0,0,0,0,0,0,0,148,0,0,0
1.48,1440089.966,6143932.193,939073.4729,283.455559,-65.883935,-33.643945,0,0,0,0,-0.024433,-0.024433,-0.024433,-0.024433,0,0,0,-71.093487,-122.427996,0,67.929578,0,0,10.811328,1,0,0,0,0,0,0,0,0,149,0,0,0
1.49,1440092.8,6143931.534,939073.1365,283.410997,-65.90229,-33.643603,0,0,0,0,-0.024433,-0.024433,-0.024433,-0.024433,0,0,0,-71.028441,-122.306513,0,67.913618,0,0,10.808788,1,0,0,0,0,0,0,0,0,150,0,0,0
1.5,1440095.634,6143930.875,939072.8001,283.366529,-65.920713,-33.64328,0,0,0,0,-0.024433,-0.024433,-0.024433,-0.024433,0,0,0,-70.963487,-122.185207,0,67.897555,0,0,10.806232,1,0,0,0,0,0,0,0,0,151,0,0,0
1.51,1440098.467,6143930.216,939072.4636,283.322155,-65.939203,-33.642977,0,0,0,0,-0.024433,-0.024433,-0.024433,-0.024433,0,0,0,-70.898631,-122.064072,0,67.881387,0,0,10.803658,1,0,0,0,0,0,0,0,0,152,0,0,0
1.52,1440101.3,6143929.556,939072.1272,283.277876,-65.95776,-33.642692,0,0,0,0,-0.024433,-0.024433,-0.024433,-0.024433,0,0,0,-70.833867,-121.943111,0,67.865115,0,0,10.801069,1,0,0,0,0,0,0,0,0,153,0,0,0
1.53,1440104.132,6143928.896,939071.7908,283.233692,-65.976383,-33.642426,0,0,0,0,-0.024433,-0.024433,-0.024433,-0.024433,0,0,0,-70.769198,-121.822327,0,67.848739,0,0,10.798462,1,0,0,0,0,0,0,0,0,154,0,0,0
1.54,1440106.964,6143928.236,939071.4544,283.189603,-65.995073,-33.642179,0,0,0,0,-0.024433,-0.024433,-0.024433,-0.024433,0,0,0,-70.704622,-121.701713,0,67.832259,0,0,10.795839,1,0,0,0,0,0,0,0,0,155,0,0,0
1.55,1440109.796,6143927.576,939071.118,283.145609,-66.01383,-33.641952,0,0,0,0,-0.024433,-0.024433,-0.024433,-0.024433,0,0,0,-70.64014,-121.581274,0,67.815674,0,0,10.7932,1,0,0,0,0,0,0,0,0,156,0,0,0
1.56,1440112.627,6143926.916,939070.7815,283.10171,-66.032653,-33.641743,0,0,0,0,-0.024433,-0.024433,-0.024433,-0.024433,0,0,0,-70.575754,-121.461008,0,67.798986,0,0,10.790544,1,0,0,0,0,0,0,0,0,157,0,0,0
1.57,1440115.457,6143926.255,939070.4451,283.057907,-66.051542,-33.641553,0,0,0,0,-0.024433,-0.024433,-0.024433,-0.024433,0,0,0,-70.511459,-121.340913,0,67.782194,0,0,10.787871,1,0,0,0,0,0,0,0,0,158,0,0,0
1.58,1440118.288,6143925.595,939070.1087,283.0142,-66.070497,-33.641382,0,0,0,0,-0.024433,-0.024433,-0.024433,-0.024433,0,0,0,-70.447256,-121.220991,0,67.765298,0,0,10.785182,1,0,0,0,0,0,0,0,0,159,0,0,0
1.59,1440121.117,6143924.934,939069.7723,282.970589,-66.089519,-33.64123,0,0,0,0,-0.024433,-0.024433,-0.024433,-0.024433,0,0,0,-70.383149,-121.101241,0,67.748298,0,0,10.782477,1,0,0,0,0,0,0,0,0,160,0,0,0
1.6,1440123.946,6143924.273,939069.4359,282.927074,-66.108606,-33.641096,0,0,0,0,-0.024433,-0.024433,-0.024433,-0.024433,0,0,0,-70.319133,-120.981664,0,67.731194,0,0,10.779754,1,0,0,0,0,0,0,0,0,161,0,0,0
1.61,1440126.775,6143923.611,939069.0995,282.883656,-66.127758,-33.640982,0,0,0,0,-0.024433,-0.024433,-0.024433,-0.024433,0,0,0,-70.255212,-120.862255,0,67.713987,0,0,10.777016,1,0,0,0,0,0,0,0,0,162,0,0,0
1.62,1440129.604,6143922.95,939068.7631,282.840334,-66.146976,-33.640886,0,0,0,0,-0.024433,-0.024433,-0.024433,-0.024433,0,0,0,-70.19138,-120.743019,0,67.696676,0,0,10.774261,1,0,0,0,0,0,0,0,0,163,0,0,0
1.63,1440132.432,6143922.288,939068.4267,282.797109,-66.166259,-33.64081,0,0,0,0,-0.024433,-0.024433,-0.024433,-0.024433,0,0,0,-70.127643,-120.623957,0,67.679261,0,0,10.771489,1,0,0,0,0,0,0,0,0,164,0,0,0
1.64,1440135.259,6143921.626,939068.0903,282.753982,-66.185608,-33.640752,0,0,0,0,-0.024433,-0.024433,-0.024433,-0.024433,0,0,0,-70.063998,-120.505063,0,67.661743,0,0,10.768701,1,0,0,0,0,0,0,0,0,165,0,0,0
1.65,1440138.086,6143920.964,939067.7538,282.710951,-66.205021,-33.640713,0,0,0,0,-0.024433,-0.024433,-0.024433,-0.024433,0,0,0,-70.000448,-120.386339,0,67.644122,0,0,10.765896,1,0,0,0,0,0,0,0,0,166,0,0,0
1.66,1440140.913,6143920.302,939067.4174,282.668018,-66.2245,-33.640693,0,0,0,0,-0.024433,-0.024433,-0.024433,-0.024433,0,0,0,-69.936987,-120.267783,0,67.626397,0,0,10.763075,1,0,0,0,0,0,0,0,0,167,0,0,0
1.67,1440143.739,6143919.64,939067.081,282.625183,-66.244042,-33.640692,0,0,0,0,-0.024433,-0.024433,-0.024433,-0.024433,0,0,0,-69.873621,-120.1494,0,67.608569,0,0,10.760238,1,0,0,0,0,0,0,0,0,168,0,0,0
1.68,1440146.565,6143918.977,939066.7446,282.582446,-66.26365,-33.64071,0,0,0,0,-0.024433,-0.024433,-0.024433,-0.024433,0,0,0,-69.810343,-120.031185,0,67.590638,0,0,10.757384,1,0,0,0,0,0,0,0,0,169,0,0,0
1.69,1440149.391,6143918.314,939066.4082,282.539807,-66.283322,-33.640746,0,0,0,0,-0.024433,-0.024433,-0.024433,-0.024433,0,0,0,-69.747158,-119.91314,0,67.572603,0,0,10.754514,1,0,0,0,0,0,0,0,0,170,0,0,0
1.7,1440152.215,6143917.651,939066.0718,282.497266,-66.303058,-33.640801,0,0,0,0,-0.024433,-0.024433,-0.024433,-0.024433,0,0,0,-69.684067,-119.795266,0,67.554466,0,0,10.751627,1,0,0,0,0,0,0,0,0,171,0,0,0
1.71,1440155.04,6143916.988,939065.7354,282.454824,-66.322858,-33.640875,0,0,0,0,-0.024433,-0.024433,-0.024433,-0.024433,0,0,0,-69.621065,-119.677556,0,67.536226,0,0,10.748724,1,0,0,0,0,0,0,0,0,172,0,0,0
1.72,1440157.864,6143916.324,939065.399,282.412481,-66.342722,-33.640968,0,0,0,0,-0.024433,-0.024433,-0.024433,-0.024433,0,0,0,-69.558155,-119.560017,0,67.517882,0,0,10.745805,1,0,0,0,0,0,0,0,0,173,0,0,0
1.73,1440160.688,6143915.661,939065.0626,282.370236,-66.36265,-33.64108,0,0,0,0,-0.024433,-0.024433,-0.024433,-0.024433,0,0,0,-69.495337,-119.442648,0,67.499436,0,0,10.742869,1,0,0,0,0,0,0,0,0,174,0,0,0
1.74,1440163.511,6143914.997,939064.7262,282.328091,-66.382641,-33.64121,0,0,0,0,-0.024433,-0.024433,-0.024433,-0.024433,0,0,0,-69.43261,-119.325444,0,67.480887,0,0,10.739917,1,0,0,0,0,0,0,0,0,175,0,0,0
1.75,1440166.334,6143914.333,939064.3898,282.286045,-66.402696,-33.641359,0,0,0,0,-0.024433,-0.024433,-0.024433,-0.024433,0,0,0,-69.369976,-119.208409,0,67.462236,0,0,10.736948,1,0,0,0,0,0,0,0,0,176,0,0,0
1.76,1440169.156,6143913.669,939064.0533,282.244099,-66.422814,-33.641527,0,0,0,0,-0.024433,-0.024433,-0.024433,-0.024433,0,0,0,-69.30743,-119.091543,0,67.443482,0,0,10.733964,1,0,0,0,0,0,0,0,0,177,0,0,0
1.77,1440171.978,6143913.004,939063.7169,282.202252,-66.442995,-33.641713,0,0,0,0,-0.024433,-0.024433,-0.024433,-0.024433,0,0,0,-69.244976,-118.97484,0,67.424625,0,0,10.730962,1,0,0,0,0,0,0,0,0,178,0,0,0
1.78,1440174.8,6143912.34,939063.3805,282.160506,-66.46324,-33.641919,0,0,0,0,-0.024433,-0.024433,-0.024433,-0.024433,0,0,0,-69.18261,-118.858304,0,67.405665,0,0,10.727945,1,0,0,0,0,0,0,0,0,179,0,0,0
1.79,1440177.621,6143911.675,939063.0441,282.118859,-66.483547,-33.642143,0,0,0,0,-0.024433,-0.024433,-0.024433,-0.024433,0,0,0,-69.120337,-118.74194,0,67.386604,0,0,10.724911,1,0,0,0,0,0,0,0,0,180,0,0,0
1.8,1440180.442,6143911.01,939062.7077,282.077313,-66.503916,-33.642385,0,0,0,0,-0.024433,-0.024433,-0.024433,-0.024433,0,0,0,-69.058155,-118.625735,0,67.36744,0,0,10.721861,1,0,0,0,0,0,0,0,0,181,0,0,0
1.81,1440183.262,6143910.345,939062.3712,282.035868,-66.524348,-33.642646,0,0,0,0,-0.024433,-0.024433,-0.024433,-0.024433,0,0,0,-68.996062,-118.509702,0,67.348173,0,0,10.718795,1,0,0,0,0,0,0,0,0,182,0,0,0
1.82,1440186.082,6143909.679,939062.0348,281.994523,-66.544843,-33.642926,0,0,0,0,-0.024433,-0.024433,-0.024433,-0.024433,0,0,0,-68.934057,-118.393833,0,67.328805,0,0,10.715712,1,0,0,0,0,0,0,0,0,183,0,0,0
1.83,1440188.902,6143909.013,939061.6984,281.953279,-66.565399,-33.643225,0,0,0,0,-0.024433,-0.024433,-0.024433,-0.024433,0,0,0,-68.872145,-118.278127,0,67.309334,0,0,10.712613,1,0,0,0,0,0,0,0,0,184,0,0,0
1.84,1440191.721,6143908.348,939061.3619,281.912137,-66.586018,-33.643542,0,0,0,0,-0.024433,-0.024433,-0.024433,-0.024433,0,0,0,-68.810324,-118.162589,0,67.289761,0,0,10.709498,1,0,0,0,0,0,0,0,0,185,0,0,0
1.85,1440194.54,6143907.682,939061.0255,281.871096,-66.606698,-33.643878,0,0,0,0,-0.024433,-0.024433,-0.024433,-0.024433,0,0,0,-68.748591,-118.047215,0,67.270087,0,0,10.706367,1,0,0,0,0,0,0,0,0,186,0,0,0
1.86,1440197.358,6143907.015,939060.6891,281.830156,-66.627441,-33.644233,0,0,0,0,-0.024433,-0.024433,-0.024433,-0.024433,0,0,0,-68.686948,-117.932005,0,67.25031,0,0,10.703219,1,0,0,0,0,0,0,0,0,187,0,0,0
1.87,1440200.176,6143906.349,939060.3526,281.789318,-66.648244,-33.644606,0,0,0,0,-0.024433,-0.024433,-0.024433,-0.024433,0,0,0,-68.625393,-117.816959,0,67.230432,0,0,10.700056,1,0,0,0,0,0,0,0,0,188,0,0,0
1.88,1440202.993,6143905.682,939060.0162,281.748582,-66.669109,-33.644997,0,0,0,0,-0.024433,-0.024433,-0.024433,-0.024433,0,0,0,-68.563926,-117.702077,0,67.210452,0,0,10.696876,1,0,0,0,0,0,0,0,0,189,0,0,0
1.89,1440205.81,6143905.015,939059.6797,281.707949,-66.690036,-33.645408,0,0,0,0,-0.024433,-0.024433,-0.024433,-0.024433,0,0,0,-68.502551,-117.587363,0,67.19037,0,0,10.69368,1,0,0,0,0,0,0,0,0,190,0,0,0
1.9,1440208.627,6143904.348,939059.3432,281.667417,-66.711023,-33.645837,0,0,0,0,-0.024433,-0.024433,-0.024433,-0.024433,0,0,0,-68.441265,-117.472809,0,67.170186,0,0,10.690467,1,0,0,0,0,0,0,0,0,191,0,0,0
1.91,1440211.443,6143903.681,939059.0068,281.626988,-66.732071,-33.646284,0,0,0,0,-0.024433,-0.024433,-0.024433,-0.024433,0,0,0,-68.380068,-117.358419,0,67.149902,0,0,10.687239,1,0,0,0,0,0,0,0,0,192,0,0,0
1.92,1440214.259,6143903.013,939058.6703,281.586662,-66.75318,-33.64675,0,0,0,0,-0.024433,-0.024433,-0.024433,-0.024433,0,0,0,-68.318959,-117.24419,0,67.129515,0,0,10.683994,1,0,0,0,0,0,0,0,0,193,0,0,0
1.93,1440217.075,6143902.345,939058.3338,281.546439,-66.774349,-33.647234,0,0,0,0,-0.024433,-0.024433,-0.024433,-0.024433,0,0,0,-68.257939,-117.130125,0,67.109028,0,0,10.680734,1,0,0,0,0,0,0,0,0,194,0,0,0
1.94,1440219.89,6143901.678,939057.9974,281.506319,-66.795579,-33.647737,0,0,0,0,-0.024433,-0.024433,-0.024433,-0.024433,0,0,0,-68.197007,-117.016224,0,67.088439,0,0,10.677457,1,0,0,0,0,0,0,0,0,195,0,0,0
1.95,1440222.704,6143901.009,939057.6609,281.466303,-66.816869,-33.648259,0,0,0,0,-0.024433,-0.024433,-0.024433,-0.024433,0,0,0,-68.13616,-116.902484,0,67.067749,0,0,10.674164,1,0,0,0,0,0,0,0,0,196,0,0,0
1.96,1440225.519,6143900.341,939057.3244,281.42639,-66.838219,-33.648799,0,0,0,0,-0.024433,-0.024433,-0.024433,-0.024433,0,0,0,-68.075406,-116.788908,0,67.046957,0,0,10.670855,1,0,0,0,0,0,0,0,0,197,0,0,0
1.97,1440228.333,6143899.672,939056.9879,281.386581,-66.859628,-33.649357,0,0,0,0,-0.024433,-0.024433,-0.024433,-0.024433,0,0,0,-68.01474,-116.675493,0,67.026065,0,0,10.66753,1,0,0,0,0,0,0,0,0,198,0,0,0
1.98,1440231.146,6143899.004,939056.6514,281.346875,-66.881098,-33.649934,0,0,0,0,-0.024433,-0.024433,-0.024433,-0.024433,0,0,0,-67.954159,-116.562238,0,67.005072,0,0,10.664188,1,0,0,0,0,0,0,0,0,199,0,0,0
1.99,1440233.959,6143898.335,939056.3149,281.307274,-66.902627,-33.650529,0,0,0,0,-0.024433,-0.024433,-0.024433,-0.024433,0,0,0,-67.89367,-116.449144,0,66.983978,0,0,10.660831,1,0,0,0,0,0,0,0,0,200,0,0,0
2,1440236.772,6143897.665,939055.9784,281.267777,-66.924216,-33.651143,0,0,0,0,-0.024433,-0.024433,-0.024433,-0.024433,0,0,0,-67.833267,-116.336211,0,66.962783,0,0,10.657458,1,0,0,0,0,0,0,0,0,201,0,0,0
2.01,1440239.584,6143896.996,939055.6419,281.228385,-66.945863,-33.651775,0,0,0,0,-0.024433,-0.024433,-0.024433,-0.024433,0,0,0,-67.772952,-116.223439,0,66.941487,0,0,10.654069,1,0,0,0,0,0,0,0,0,202,0,0,0
2.02,1440242.396,6143896.326,939055.3053,281.189097,-66.96757,-33.652426,0,0,0,0,-0.024433,-0.024433,-0.024433,-0.024433,0,0,0,-67.712722,-116.110827,0,66.920091,0,0,10.650663,1,0,0,0,0,0,0,0,0,203,0,0,0
2.03,1440245.207,6143895.656,939054.9688,281.149914,-66.989336,-33.653095,0,0,0,0,-0.024433,-0.024433,-0.024433,-0.024433,0,0,0,-67.652581,-115.998376,0,66.898594,0,0,10.647242,1,0,0,0,0,0,0,0,0,204,0,0,0
2.04,1440248.019,6143894.986,939054.6323,281.110836,-67.01116,-33.653782,0,0,0,0,-0.024433,-0.024433,-0.024433,-0.024433,0,0,0,-67.592528,-115.886086,0,66.876997,0,0,10.643805,1,0,0,0,0,0,0,0,0,205,0,0,0
2.05,1440250.829,6143894.316,939054.2957,281.071864,-67.033043,-33.654488,0,0,0,0,-0.024433,-0.024433,-0.024433,-0.024433,0,0,0,-67.532561,-115.773954,0,66.855299,0,0,10.640351,1,0,0,0,0,0,0,0,0,206,0,0,0
2.06,1440253.64,6143893.645,939053.9592,281.032996,-67.054984,-33.655212,0,0,0,0,-0.024433,-0.024433,-0.024433,-0.024433,0,0,0,-67.472683,-115.661982,0,66.833502,0,0,10.636882,1,0,0,0,0,0,0,0,0,207,0,0,0
2.07,1440256.45,6143892.975,939053.6226,280.994235,-67.076984,-33.655955,0,0,0,0,-0.024433,-0.024433,-0.024433,-0.024433,0,0,0,-67.412889,-115.550171,0,66.811603,0,0,10.633397,1,0,0,0,0,0,0,0,0,208,0,0,0
2.08,1440259.259,6143892.304,939053.286,280.955579,-67.099041,-33.656715,0,0,0,0,-0.024433,-0.024433,-0.024433,-0.024433,0,0,0,-67.353181,-115.438518,0,66.789605,0,0,10.629896,1,0,0,0,0,0,0,0,0,209,0,0,0
2.09,1440262.068,6143891.632,939052.9495,280.917029,-67.121156,-33.657494,0,0,0,0,-0.024433,-0.024433,-0.024433,-0.024433,0,0,0,-67.293562,-115.327021,0,66.767507,0,0,10.626379,1,0,0,0,0,0,0,0,0,210,0,0,0
2.1,1440264.877,6143890.961,939052.6129,280.878586,-67.143329,-33.658292,0,0,0,0,-0.024433,-0.024433,-0.024433,-0.024433,0,0,0,-67.234031,-115.215683,0,66.745309,0,0,10.622846,1,0,0,0,0,0,0,0,0,211,0,0,0
2.11,1440267.685,6143890.289,939052.2763,280.840248,-67.16556,-33.659107,0,0,0,0,-0.024433,-0.024433,-0.024433,-0.024433,0,0,0,-67.174582,-115.104505,0,66.723011,0,0,10.619297,1,0,0,0,0,0,0,0,0,212,0,0,0
2.12,1440270.494,6143889.617,939051.9397,280.802018,-67.187848,-33.659941,0,0,0,0,-0.024433,-0.024433,-0.024433,-0.024433,0,0,0,-67.115222,-114.993485,0,66.700613,0,0,10.615732,1,0,0,0,0,0,0,0,0,213,0,0,0
2.13,1440273.301,6143888.945,939051.6031,280.763894,-67.210193,-33.660793,0,0,0,0,-0.024433,-0.024433,-0.024433,-0.024433,0,0,0,-67.05595,-114.882619,0,66.678115,0,0,10.612152,1,0,0,0,0,0,0,0,0,214,0,0,0
2.14,1440276.108,6143888.273,939051.2665,280.725877,-67.232595,-33.661664,0,0,0,0,-0.024433,-0.024433,-0.024433,-0.024433,0,0,0,-66.996761,-114.771913,0,66.655518,0,0,10.608555,1,0,0,0,0,0,0,0,0,215,0,0,0
2.15,1440278.915,6143887.6,939050.9299,280.687967,-67.255054,-33.662552,0,0,0,0,-0.024433,-0.024433,-0.024433,-0.024433,0,0,0,-66.93766,-114.661365,0,66.632821,0,0,10.604943,1,0,0,0,0,0,0,0,0,216,0,0,0
2.16,1440281.722,6143886.928,939050.5932,280.650164,-67.277569,-33.663459,0,0,0,0,-0.024433,-0.024433,-0.024433,-0.024433,0,0,0,-66.878641,-114.550972,0,66.610025,0,0,10.601315,1,0,0,0,0,0,0,0,0,217,0,0,0
2.17,1440284.528,6143886.255,939050.2566,280.612469,-67.300141,-33.664384,0,0,0,0,-0.024433,-0.024433,-0.024433,-0.024433,0,0,0,-66.81971,-114.440735,0,66.58713,0,0,10.597671,1,0,0,0,0,0,0,0,0,218,0,0,0
2.18,1440287.334,6143885.581,939049.9199,280.574882,-67.322769,-33.665327,0,0,0,0,-0.024433,-0.024433,-0.024433,-0.024433,0,0,0,-66.760865,-114.330657,0,66.564135,0,0,10.594011,1,0,0,0,0,0,0,0,0,219,0,0,0
2.19,1440290.139,6143884.908,939049.5833,280.537402,-67.345454,-33.666288,0,0,0,0,-0.024433,-0.024433,-0.024433,-0.024433,0,0,0,-66.702105,-114.220732,0,66.541041,0,0,10.590336,1,0,0,0,0,0,0,0,0,220,0,0,0
2.2,1440292.944,6143884.234,939049.2466,280.500031,-67.368194,-33.667268,0,0,0,0,-0.024433,-0.024433,-0.024433,-0.024433,0,0,0,-66.643431,-114.110965,0,66.517848,0,0,10.586644,1,0,0,0,0,0,0,0,0,221,0,0,0
2.21,1440295.749,6143883.56,939048.9099,280.462767,-67.39099,-33.668265,0,0,0,0,-0.024433,-0.024433,-0.024433,-0.024433,0,0,0,-66.584841,-114.001352,0,66.494556,0,0,10.582937,1,0,0,0,0,0,0,0,0,222,0,0,0
2.22,1440298.553,6143882.886,939048.5732,280.425612,-67.413842,-33.669281,0,0,0,0,-0.024433,-0.024433,-0.024433,-0.024433,0,0,0,-66.526334,-113.891897,0,66.471165,0,0,10.579214,1,0,0,0,0,0,0,0,0,223,0,0,0
2.23,1440301.357,6143882.212,939048.2365,280.388566,-67.436749,-33.670315,0,0,0,0,-0.024433,-0.024433,-0.024433,-0.024433,0,0,0,-66.467916,-113.782592,0,66.447675,0,0,10.575476,1,0,0,0,0,0,0,0,0,224,0,0,0
2.24,1440304.16,6143881.537,939047.8998,280.351628,-67.459712,-33.671366,0,0,0,0,-0.024433,-0.024433,-0.024433,-0.024433,0,0,0,-66.409579,-113.673445,0,66.424087,0,0,10.571722,1,0,0,0,0,0,0,0,0,225,0,0,0
2.25,1440306.963,6143880.862,939047.5631,280.3148,-67.48273,-33.672436,0,0,0,0,-0.024433,-0.024433,-0.024433,-0.024433,0,0,0,-66.351328,-113.564453,0,66.4004,0,0,10.567952,1,0,0,0,0,0,0,0,0,226,0,0,0
2.26,1440309.766,6143880.187,939047.2263,280.27808,-67.505802,-33.673524,0,0,0,0,-0.024433,-0.024433,-0.024433,-0.024433,0,0,0,-66.293162,-113.455614,0,66.376614,0,0,10.564166,1,0,0,0,0,0,0,0,0,227,0,0,0
2.27,1440312.569,6143879.512,939046.8896,280.241469,-67.528929,-33.67463,0,0,0,0,-0.024433,-0.024433,-0.024433,-0.024433,0,0,0,-66.235081,-113.34693,0,66.35273,0,0,10.560365,1,0,0,0,0,0,0,0,0,228,0,0,0
2.28,1440315.371,6143878.837,939046.5528,280.204969,-67.552111,-33.675754,0,0,0,0,-0.024433,-0.024433,-0.024433,-0.024433,0,0,0,-66.177082,-113.238399,0,66.328747,0,0,10.556548,1,0,0,0,0,0,0,0,0,229,0,0,0
2.29,1440318.172,6143878.161,939046.2161,280.168577,-67.575347,-33.676896,0,0,0,0,-0.024433,-0.024433,-0.024433,-0.024433,0,0,0,-66.119169,-113.130023,0,66.304667,0,0,10.552716,1,0,0,0,0,0,0,0,0,230,0,0,0
2.3,1440320.974,6143877.485,939045.8793,280.132295,-67.598637,-33.678056,0,0,0,0,-0.024433,-0.024433,-0.024433,-0.024433,0,0,0,-66.061337,-113.021798,0,66.280488,0,0,10.548867,1,0,0,0,0,0,0,0,0,231,0,0,0
2.31,1440323.775,6143876.809,939045.5425,280.096124,-67.621982,-33.679234,0,0,0,0,-0.024433,-0.024433,-0.024433,-0.024433,0,0,0,-66.003591,-112.913727,0,66.256211,0,0,10.545003,1,0,0,0,0,0,0,0,0,232,0,0,0
2.32,1440326.575,6143876.132,939045.2057,280.060062,-67.64538,-33.68043,0,0,0,0,-0.024433,-0.024433,-0.024433,-0.024433,0,0,0,-65.945931,-112.805811,0,66.231836,0,0,10.541124,1,0,0,0,0,0,0,0,0,233,0,0,0
2.33,1440329.376,6143875.455,939044.8689,280.024111,-67.668832,-33.681643,0,0,0,0,-0.024433,-0.024433,-0.024433,-0.024433,0,0,0,-65.888352,-112.698045,0,66.207363,0,0,10.537229,1,0,0,0,0,0,0,0,0,234,0,0,0
2.34,1440332.175,6143874.778,939044.532,279.98827,-67.692337,-33.682875,0,0,0,0,-0.024433,-0.024433,-0.024433,-0.024433,0,0,0,-65.830858,-112.59043,0,66.182793,0,0,10.533319,1,0,0,0,0,0,0,0,0,235,0,0,0
2.35,1440334.975,6143874.101,939044.1952,279.95254,-67.715896,-33.684124,0,0,0,0,-0.024433,-0.024433,-0.024433,-0.024433,0,0,0,-65.773447,-112.482969,0,66.158124,0,0,10.529392,1,0,0,0,0,0,0,0,0,236,0,0,0
2.36,1440337.774,6143873.424,939043.8583,279.916921,-67.739508,-33.685392,0,0,0,0,-0.024433,-0.024433,-0.024433,-0.024433,0,0,0,-65.716118,-112.37566,0,66.133358,0,0,10.525451,1,0,0,0,0,0,0,0,0,237,0,0,0
2.37,1440340.573,6143872.746,939043.5215,279.881413,-67.763172,-33.686677,0,0,0,0,-0.024433,-0.024433,-0.024433,-0.024433,0,0,0,-65.65887,-112.268504,0,66.108495,0,0,10.521494,1,0,0,0,0,0,0,0,0,238,0,0,0
2.38,1440343.371,6143872.068,939043.1846,279.846016,-67.78689,-33.68798,0,0,0,0,-0.024433,-0.024433,-0.024433,-0.024433,0,0,0,-65.601708,-112.161496,0,66.083534,0,0,10.517521,1,0,0,0,0,0,0,0,0,239,0,0,0
2.39,1440346.169,6143871.39,939042.8477,279.81073,-67.81066,-33.689301,0,0,0,0,-0.024433,-0.024433,-0.024433,-0.024433,0,0,0,-65.544628,-112.054639,0,66.058476,0,0,10.513533,1,0,0,0,0,0,0,0,0,240,0,0,0
2.4,1440348.967,6143870.712,939042.5108,279.775556,-67.834482,-33.69064,0,0,0,0,-0.024433,-0.024433,-0.024433,-0.024433,0,0,0,-65.487633,-111.947937,0,66.03332,0,0,10.509529,1,0,0,0,0,0,0,0,0,241,0,0,0
2.41,1440351.765,6143870.033,939042.1739,279.740494,-67.858357,-33.691996,0,0,0,0,-0.024433,-0.024433,-0.024433,-0.024433,0,0,0,-65.430717,-111.841381,0,66.008068,0,0,10.50551,1,0,0,0,0,0,0,0,0,242,0,0,0
2.42,1440354.562,6143869.355,939041.8369,279.705543,-67.882284,-33.69337,0,0,0,0,-0.024433,-0.024433,-0.024433,-0.024433,0,0,0,-65.373887,-111.734977,0,65.982718,0,0,10.501476,1,0,0,0,0,0,0,0,0,243,0,0,0
2.43,1440357.358,6143868.676,939041.5,279.670705,-67.906262,-33.694762,0,0,0,0,-0.024433,-0.024433,-0.024433,-0.024433,0,0,0,-65.317138,-111.628721,0,65.957272,0,0,10.497426,1,0,0,0,0,0,0,0,0,244,0,0,0
2.44,1440360.155,6143867.996,939041.163,279.635978,-67.930292,-33.696172,0,0,0,0,-0.024433,-0.024433,-0.024433,-0.024433,0,0,0,-65.260471,-111.522618,0,65.931729,0,0,10.493361,1,0,0,0,0,0,0,0,0,245,0,0,0
2.45,1440362.951,6143867.317,939040.8261,279.601364,-67.954374,-33.697599,0,0,0,0,-0.024433,-0.024433,-0.024433,-0.024433,0,0,0,-65.203887,-111.416664,0,65.906089,0,0,10.48928,1,0,0,0,0,0,0,0,0,246,0,0,0
2.46,1440365.746,6143866.637,939040.4891,279.566863,-67.978507,-33.699044,0,0,0,0,-0.024433,-0.024433,-0.024433,-0.024433,0,0,0,-65.147384,-111.310857,0,65.880352,0,0,10.485184,1,0,0,0,0,0,0,0,0,247,0,0,0
2.47,1440368.542,6143865.957,939040.1521,279.532474,-68.002691,-33.700507,0,0,0,0,-0.024433,-0.024433,-0.024433,-0.024433,0,0,0,-65.090963,-111.2052,0,65.854519,0,0,10.481072,1,0,0,0,0,0,0,0,0,248,0,0,0
2.48,1440371.337,6143865.277,939039.815,279.498199,-68.026927,-33.701988,0,0,0,0,-0.024433,-0.024433,-0.024433,-0.024433,0,0,0,-65.034622,-111.099695,0,65.828589,0,0,10.476945,1,0,0,0,0,0,0,0,0,249,0,0,0
2.49,1440374.131,6143864.596,939039.478,279.464036,-68.051213,-33.703486,0,0,0,0,-0.024433,-0.024433,-0.024433,-0.024433,0,0,0,-64.978365,-110.994334,0,65.802563,0,0,10.472803,1,0,0,0,0,0,0,0,0,250,0,0,0
2.5,1440376.926,6143863.915,939039.141,279.429986,-68.075549,-33.705001,0,0,0,0,-0.024433,-0.024433,-0.024433,-0.024433,0,0,0,-64.92219,-110.889124,0,65.776441,0,0,10.468646,1,0,0,0,0,0,0,0,0,251,0,0,0
2.51,1440379.72,6143863.234,939038.8039,279.39605,-68.099936,-33.706535,0,0,0,0,-0.024433,-0.024433,-0.024433,-0.024433,0,0,0,-64.866095,-110.784062,0,65.750222,0,0,10.464473,1,0,0,0,0,0,0,0,0,252,0,0,0
2.52,1440382.513,6143862.553,939038.4668,279.362227,-68.124373,-33.708085,0,0,0,0,-0.024433,-0.024433,-0.024433,-0.024433,0,0,0,-64.810081,-110.679147,0,65.723908,0,0,10.460285,1,0,0,0,0,0,0,0,0,253,0,0,0
2.53,1440385.307,6143861.872,939038.1297,279.328518,-68.14886,-33.709654,0,0,0,0,-0.024433,-0.024433,-0.024433,-0.024433,0,0,0,-64.754149,-110.57438,0,65.697498,0,0,10.456082,1,0,0,0,0,0,0,0,0,254,0,0,0
2.54,1440388.1,6143861.19,939037.7926,279.294923,-68.173397,-33.71124,0,0,0,0,-0.024433,-0.024433,-0.024433,-0.024433,0,0,0,-64.698299,-110.469758,0,65.670992,0,0,10.451863,1,0,0,0,0,0,0,0,0,255,0,0,0
2.55,1440390.892,6143860.508,939037.4555,279.261442,-68.197983,-33.712843,0,0,0,0,-0.024433,-0.024433,-0.024433,-0.024433,0,0,0,-64.642528,-110.365286,0,65.64439,0,0,10.447629,1,0,0,0,0,0,0,0,0,256,0,0,0
2.56,1440393.684,6143859.826,939037.1183,279.228075,-68.222619,-33.714464,0,0,0,0,-0.024433,-0.024433,-0.024433,-0.024433,0,0,0,-64.586839,-110.260961,0,65.617692,0,0,10.44338,1,0,0,0,0,0,0,0,0,257,0,0,0
2.57,1440396.476,6143859.143,939036.7812,279.194822,-68.247305,-33.716103,0,0,0,0,-0.024433,-0.024433,-0.024433,-0.024433,0,0,0,-64.531229,-110.156782,0,65.590899,0,0,10.439116,1,0,0,0,0,0,0,0,0,258,0,0,0
2.58,1440399.268,6143858.46,939036.444,279.161684,-68.272039,-33.717759,0,0,0,0,-0.024433,-0.024433,-0.024433,-0.024433,0,0,0,-64.475701,-110.05275,0,65.564011,0,0,10.434836,1,0,0,0,0,0,0,0,0,259,0,0,0
2.59,1440402.059,6143857.777,939036.1068,279.12866,-68.296822,-33.719432,0,0,0,0,-0.024433,-0.024433,-0.024433,-0.024433,0,0,0,-64.420255,-109.948862,0,65.537027,0,0,10.430542,1,0,0,0,0,0,0,0,0,260,0,0,0
2.6,1440404.85,6143857.094,939035.7696,279.095751,-68.321654,-33.721123,0,0,0,0,-0.024433,-0.024433,-0.024433,-0.024433,0,0,0,-64.364887,-109.845122,0,65.509948,0,0,10.426232,1,0,0,0,0,0,0,0,0,261,0,0,0
2.61,1440407.641,6143856.411,939035.4324,279.062957,-68.346535,-33.722831,0,0,0,0,-0.024433,-0.024433,-0.024433,-0.024433,0,0,0,-64.309602,-109.741526,0,65.482774,0,0,10.421907,1,0,0,0,0,0,0,0,0,262,0,0,0
2.62,1440410.431,6143855.727,939035.0951,279.030279,-68.371464,-33.724556,0,0,0,0,-0.024433,-0.024433,-0.024433,-0.024433,0,0,0,-64.254395,-109.638074,0,65.455505,0,0,10.417567,1,0,0,0,0,0,0,0,0,263,0,0,0
2.63,1440413.221,6143855.043,939034.7578,278.997715,-68.396441,-33.726299,0,0,0,0,-0.024433,-0.024433,-0.024433,-0.024433,0,0,0,-64.199267,-109.534771,0,65.428141,0,0,10.413212,1,0,0,0,0,0,0,0,0,264,0,0,0
2.64,1440416.011,6143854.359,939034.4206,278.965267,-68.421466,-33.72806,0,0,0,0,-0.024433,-0.024433,-0.024433,-0.024433,0,0,0,-64.144218,-109.431611,0,65.400682,0,0,10.408842,1,0,0,0,0,0,0,0,0,265,0,0,0
2.65,1440418.8,6143853.674,939034.0833,278.932935,-68.446539,-33.729837,0,0,0,0,-0.024433,-0.024433,-0.024433,-0.024433,0,0,0,-64.089251,-109.328596,0,65.373128,0,0,10.404456,1,0,0,0,0,0,0,0,0,266,0,0,0
2.66,1440421.589,6143852.99,939033.746,278.900718,-68.471659,-33.731632,0,0,0,0,-0.024433,-0.024433,-0.024433,-0.024433,0,0,0,-64.034366,-109.225725,0,65.34548,0,0,10.400056,1,0,0,0,0,0,0,0,0,267,0,0,0
2.67,1440424.378,6143852.305,939033.4086,278.868617,-68.496827,-33.733444,0,0,0,0,-0.024433,-0.024433,-0.024433,-0.024433,0,0,0,-63.979556,-109.122999,0,65.317738,0,0,10.395641,1,0,0,0,0,0,0,0,0,268,0,0,0
2.68,1440427.166,6143851.62,939033.0713,278.836633,-68.522042,-33.735274,0,0,0,0,-0.024433,-0.024433,-0.024433,-0.024433,0,0,0,-63.924828,-109.020417,0,65.289901,0,0,10.39121,1,0,0,0,0,0,0,0,0,269,0,0,0
2.69,1440429.954,6143850.934,939032.7339,278.804764,-68.547304,-33.73712,0,0,0,0,-0.024433,-0.024433,-0.024433,-0.024433,0,0,0,-63.870179,-108.917979,0,65.26197,0,0,10.386765,1,0,0,0,0,0,0,0,0,270,0,0,0
2.7,1440432.742,6143850.248,939032.3965,278.773012,-68.572612,-33.738984,0,0,0,0,-0.024433,-0.024433,-0.024433,-0.024433,0,0,0,-63.815609,-108.815686,0,65.233945,0,0,10.382305,1,0,0,0,0,0,0,0,0,271,0,0,0
2.71,1440435.529,6143849.562,939032.0591,278.741376,-68.597968,-33.740865,0,0,0,0,-0.024433,-0.024433,-0.024433,-0.024433,0,0,0,-63.761118,-108.713534,0,65.205825,0,0,10.377829,1,0,0,0,0,0,0,0,0,272,0,0,0
2.72,1440438.316,6143848.876,939031.7217,278.709857,-68.62337,-33.742764,0,0,0,0,-0.024433,-0.024433,-0.024433,-0.024433,0,0,0,-63.706705,-108.611526,0,65.177612,0,0,10.373339,1,0,0,0,0,0,0,0,0,273,0,0,0
2.73,1440441.103,6143848.19,939031.3842,278.678455,-68.648818,-33.744679,0,0,0,0,-0.024433,-0.024433,-0.024433,-0.024433,0,0,0,-63.652371,-108.509659,0,65.149305,0,0,10.368834,1,0,0,0,0,0,0,0,0,274,0,0,0
2.74,1440443.89,6143847.503,939031.0468,278.64717,-68.674312,-33.746612,0,0,0,0,-0.024433,-0.024433,-0.024433,-0.024433,0,0,0,-63.598116,-108.407937,0,65.120904,0,0,10.364314,1,0,0,0,0,0,0,0,0,275,0,0,0
2.75,1440446.676,6143846.816,939030.7093,278.616001,-68.699852,-33.748561,0,0,0,0,-0.024433,-0.024433,-0.024433,-0.024433,0,0,0,-63.543939,-108.306355,0,65.09241,0,0,10.359779,1,0,0,0,0,0,0,0,0,276,0,0,0
2.76,1440449.462,6143846.129,939030.3718,278.58495,-68.725438,-33.750528,0,0,0,0,-0.024433,-0.024433,-0.024433,-0.024433,0,0,0,-63.489841,-108.204915,0,65.063822,0,0,10.355229,1,0,0,0,0,0,0,0,0,277,0,0,0
2.77,1440452.247,6143845.441,939030.0342,278.554017,-68.751069,-33.752512,0,0,0,0,-0.024433,-0.024433,-0.024433,-0.024433,0,0,0,-63.435822,-108.103619,0,65.03514,0,0,10.350664,1,0,0,0,0,0,0,0,0,278,0,0,0
2.78,1440455.033,6143844.753,939029.6967,278.523201,-68.776745,-33.754513,0,0,0,0,-0.024433,-0.024433,-0.024433,-0.024433,0,0,0,-63.381882,-108.002464,0,65.006366,0,0,10.346084,1,0,0,0,0,0,0,0,0,279,0,0,0
2.79,1440457.817,6143844.065,939029.3591,278.492503,-68.802467,-33.756531,0,0,0,0,-0.024433,-0.024433,-0.024433,-0.024433,0,0,0,-63.328017,-107.90145,0,64.977498,0,0,10.34149,1,0,0,0,0,0,0,0,0,280,0,0,0
2.8,1440460.602,6143843.377,939029.0215,278.461922,-68.828233,-33.758565,0,0,0,0,-0.024433,-0.024433,-0.024433,-0.024433,0,0,0,-63.274231,-107.800578,0,64.948537,0,0,10.336881,1,0,0,0,0,0,0,0,0,281,0,0,0
2.81,1440463.386,6143842.689,939028.6839,278.43146,-68.854045,-33.760617,0,0,0,0,-0.024433,-0.024433,-0.024433,-0.024433,0,0,0,-63.220524,-107.699846,0,64.919483,0,0,10.332257,1,0,0,0,0,0,0,0,0,282,0,0,0
2.82,1440466.17,6143842,939028.3463,278.401115,-68.8799,-33.762686,0,0,0,0,-0.024433,-0.024433,-0.024433,-0.024433,0,0,0,-63.166895,-107.599255,0,64.890337,0,0,10.327618,1,0,0,0,0,0,0,0,0,283,0,0,0
2.83,1440468.954,6143841.311,939028.0087,278.370889,-68.9058,-33.764772,0,0,0,0,-0.024433,-0.024433,-0.024433,-0.024433,0,0,0,-63.113342,-107.498806,0,64.861098,0,0,10.322964,1,0,0,0,0,0,0,0,0,284,0,0,0
2.84,1440471.737,6143840.621,939027.671,278.340781,-68.931745,-33.766875,0,0,0,0,-0.024433,-0.024433,-0.024433,-0.024433,0,0,0,-63.059868,-107.398498,0,64.831766,0,0,10.318296,1,0,0,0,0,0,0,0,0,285,0,0,0
2.85,1440474.521,6143839.932,939027.3333,278.310792,-68.957733,-33.768994,0,0,0,0,-0.024433,-0.024433,-0.024433,-0.024433,0,0,0,-63.006472,-107.298327,0,64.802341,0,0,10.313613,1,0,0,0,0,0,0,0,0,286,0,0,0
2.86,1440477.303,6143839.242,939026.9956,278.280922,-68.983765,-33.771131,0,0,0,0,-0.024433,-0.024433,-0.024433,-0.024433,0,0,0,-62.953152,-107.198297,0,64.772824,0,0,10.308915,1,0,0,0,0,0,0,0,0,287,0,0,0
2.87,1440480.086,6143838.552,939026.6579,278.251171,-69.00984,-33.773284,0,0,0,0,-0.024433,-0.024433,-0.024433,-0.024433,0,0,0,-62.89991,-107.098406,0,64.743215,0,0,10.304203,1,0,0,0,0,0,0,0,0,288,0,0,0
2.88,1440482.868,6143837.861,939026.3201,278.221538,-69.035959,-33.775454,0,0,0,0,-0.024433,-0.024433,-0.024433,-0.024433,0,0,0,-62.846744,-106.998655,0,64.713514,0,0,10.299476,1,0,0,0,0,0,0,0,0,289,0,0,0
2.89,1440485.65,6143837.171,939025.9823,278.192025,-69.062121,-33.777641,0,0,0,0,-0.024433,-0.024433,-0.024433,-0.024433,0,0,0,-62.793657,-106.899042,0,64.683721,0,0,10.294734,1,0,0,0,0,0,0,0,0,290,0,0,0
2.9,1440488.432,6143836.48,939025.6445,278.162631,-69.088326,-33.779845,0,0,0,0,-0.024433,-0.024433,-0.024433,-0.024433,0,0,0,-62.740645,-106.79957,0,64.653836,0,0,10.289978,1,0,0,0,0,0,0,0,0,291,0,0,0
2.91,1440491.213,6143835.789,939025.3067,278.133356,-69.114573,-33.782065,0,0,0,0,-0.024433,-0.024433,-0.024433,-0.024433,0,0,0,-62.687709,-106.700233,0,64.623859,0,0,10.285207,1,0,0,0,0,0,0,0,0,292,0,0,0
2.92,1440493.994,6143835.097,939024.9689,278.104201,-69.140864,-33.784303,0,0,0,0,-0.024433,-0.024433,-0.024433,-0.024433,0,0,0,-62.634851,-106.601037,0,64.59379,0,0,10.280421,1,0,0,0,0,0,0,0,0,293,0,0,0
2.93,1440496.775,6143834.406,939024.631,278.075166,-69.167196,-33.786557,0,0,0,0,-0.024433,-0.024433,-0.024433,-0.024433,0,0,0,-62.582069,-106.501982,0,64.56363,0,0,10.275621,1,0,0,0,0,0,0,0,0,294,0,0,0
2.94,1440499.555,6143833.714,939024.2931,278.04625,-69.193571,-33.788827,0,0,0,0,-0.024433,-0.024433,-0.024433,-0.024433,0,0,0,-62.529366,-106.403061,0,64.533378,0,0,10.270806,1,0,0,0,0,0,0,0,0,295,0,0,0
2.95,1440502.335,6143833.022,939023.9552,278.017454,-69.219988,-33.791115,0,0,0,0,-0.024433,-0.024433,-0.024433,-0.024433,0,0,0,-62.476734,-106.304278,0,64.503035,0,0,10.265977,1,0,0,0,0,0,0,0,0,296,0,0,0
2.96,1440505.115,6143832.329,939023.6173,277.988779,-69.246447,-33.793419,0,0,0,0,-0.024433,-0.024433,-0.024433,-0.024433,0,0,0,-62.424182,-106.205633,0,64.472601,0,0,10.261133,1,0,0,0,0,0,0,0,0,297,0,0,0
2.97,1440507.895,6143831.636,939023.2793,277.960224,-69.272947,-33.795739,0,0,0,0,-0.024433,-0.024433,-0.024433,-0.024433,0,0,0,-62.371705,-106.107126,0,64.442076,0,0,10.256275,1,0,0,0,0,0,0,0,0,298,0,0,0
2.98,1440510.674,6143830.943,939022.9413,277.931789,-69.299488,-33.798076,0,0,0,0,-0.024433,-0.024433,-0.024433,-0.024433,0,0,0,-62.319303,-106.008757,0,64.411459,0,0,10.251402,1,0,0,0,0,0,0,0,0,299,0,0,0
2.99,1440513.453,6143830.25,939022.6033,277.903475,-69.326071,-33.80043,0,0,0,0,-0.024433,-0.024433,-0.024433,-0.024433,0,0,0,-62.26698,-105.910522,0,64.380752,0,0,10.246515,1,0,0,0,0,0,0,0,0,300,0,0,0
3,1440516.232,6143829.557,939022.2653,277.875281,-69.352695,-33.8028,0,0,0,0,-0.024433,-0.024433,-0.024433,-0.024433,0,0,0,-62.21473,-105.812425,0,64.349954,0,0,10.241613,1,0,0,0,0,0,0,0,0,301,0,0,0
3.01,1440519.011,6143828.863,939021.9272,277.847208,-69.37936,-33.805187,0,0,0,0,-0.024433,-0.024433,-0.024433,-0.024433,0,0,0,-62.162558,-105.714465,0,64.319065,0,0,10.236697,1,0,0,0,0,0,0,0,0,302,0,0,0
3.02,1440521.789,6143828.169,939021.5892,277.819256,-69.406065,-33.807591,0,0,0,0,-0.024433,-0.024433,-0.024433,-0.024433,0,0,0,-62.110458,-105.616641,0,64.288086,0,0,10.231767,1,0,0,0,0,0,0,0,0,303,0,0,0
3.03,1440524.567,6143827.474,939021.2511,277.791425,-69.43281,-33.810011,0,0,0,0,-0.024433,-0.024433,-0.024433,-0.024433,0,0,0,-62.058437,-105.518953,0,64.257017,0,0,10.226822,1,0,0,0,0,0,0,0,0,304,0,0,0
3.04,1440527.344,6143826.78,939020.9129,277.763715,-69.459596,-33.812447,0,0,0,0,-0.024433,-0.024433,-0.024433,-0.024433,0,0,0,-62.006488,-105.421401,0,64.225857,0,0,10.221863,1,0,0,0,0,0,0,0,0,305,0,0,0
3.05,1440530.122,6143826.085,939020.5748,277.736127,-69.486422,-33.8149,0,0,0,0,-0.024433,-0.024433,-0.024433,-0.024433,0,0,0,-61.954615,-105.323983,0,64.194607,0,0,10.216889,1,0,0,0,0,0,0,0,0,306,0,0,0
3.06,1440532.899,6143825.39,939020.2366,277.70866,-69.513288,-33.817369,0,0,0,0,-0.024433,-0.024433,-0.024433,-0.024433,0,0,0,-61.902817,-105.226703,0,64.163267,0,0,10.211901,1,0,0,0,0,0,0,0,0,307,0,0,0
3.07,1440535.676,6143824.694,939019.8984,277.681314,-69.540193,-33.819854,0,0,0,0,-0.024433,-0.024433,-0.024433,-0.024433,0,0,0,-61.851095,-105.129554,0,64.131837,0,0,10.206899,1,0,0,0,0,0,0,0,0,308,0,0,0
3.08,1440538.452,6143823.999,939019.5602,277.65409,-69.567137,-33.822356,0,0,0,0,-0.024433,-0.024433,-0.024433,-0.024433,0,0,0,-61.799448,-105.032543,0,64.100317,0,0,10.201882,1,0,0,0,0,0,0,0,0,309,0,0,0
3.09,1440541.228,6143823.303,939019.222,277.626988,-69.594121,-33.824874,0,0,0,0,-0.024433,-0.024433,-0.024433,-0.024433,0,0,0,-61.747876,-104.935666,0,64.068708,0,0,10.196852,1,0,0,0,0,0,0,0,0,310,0,0,0
3.1,1440544.004,6143822.607,939018.8837,277.600008,-69.621144,-33.827409,0,0,0,0,-0.024433,-0.024433,-0.024433,-0.024433,0,0,0,-61.696377,-104.838924,0,64.037009,0,0,10.191807,1,0,0,0,0,0,0,0,0,311,0,0,0
3.11,1440546.78,6143821.91,939018.5454,277.57315,-69.648206,-33.82996,0,0,0,0,-0.024433,-0.024433,-0.024433,-0.024433,0,0,0,-61.644953,-104.742313,0,64.00522,0,0,10.186747,1,0,0,0,0,0,0,0,0,312,0,0,0
3.12,1440549.556,6143821.213,939018.2071,277.546414,-69.675306,-33.832527,0,0,0,0,-0.024433,-0.024433,-0.024433,-0.024433,0,0,0,-61.593604,-104.64584,0,63.973343,0,0,10.181674,1,0,0,0,0,0,0,0,0,313,0,0,0
3.13,1440552.331,6143820.516,939017.8687,277.519801,-69.702444,-33.83511,0,0,0,0,-0.024433,-0.024433,-0.024433,-0.024433,0,0,0,-61.542328,-104.549498,0,63.941376,0,0,10.176586,1,0,0,0,0,0,0,0,0,314,0,0,0
3.14,1440555.106,6143819.819,939017.5303,277.49331,-69.729621,-33.837709,0,0,0,0,-0.024433,-0.024433,-0.024433,-0.024433,0,0,0,-61.491127,-104.453291,0,63.90932,0,0,10.171484,1,0,0,0,0,0,0,0,0,315,0,0,0
3.15,1440557.88,6143819.121,939017.1919,277.466941,-69.756836,-33.840325,0,0,0,0,-0.024433,-0.024433,-0.024433,-0.024433,0,0,0,-61.440002,-104.357218,0,63.877175,0,0,10.166368,1,0,0,0,0,0,0,0,0,316,0,0,0
3.16,1440560.655,6143818.424,939016.8535,277.440696,-69.784089,-33.842957,0,0,0,0,-0.024433,-0.024433,-0.024433,-0.024433,0,0,0,-61.388949,-104.261276,0,63.844941,0,0,10.161238,1,0,0,0,0,0,0,0,0,317,0,0,0
3.17,1440563.429,6143817.726,939016.515,277.414573,-69.811379,-33.845605,0,0,0,0,-0.024433,-0.024433,-0.024433,-0.024433,0,0,0,-61.337968,-104.165469,0,63.812619,0,0,10.156094,1,0,0,0,0,0,0,0,0,318,0,0,0
3.18,1440566.203,6143817.027,939016.1766,277.388573,-69.838706,-33.848269,0,0,0,0,-0.024433,-0.024433,-0.024433,-0.024433,0,0,0,-61.287062,-104.069793,0,63.780208,0,0,10.150935,1,0,0,0,0,0,0,0,0,319,0,0,0
3.19,1440568.976,6143816.328,939015.838,277.362696,-69.866071,-33.850949,0,0,0,0,-0.024433,-0.024433,-0.024433,-0.024433,0,0,0,-61.236232,-103.974249,0,63.747709,0,0,10.145763,1,0,0,0,0,0,0,0,0,320,0,0,0
3.2,1440571.75,6143815.63,939015.4995,277.336942,-69.893473,-33.853646,0,0,0,0,-0.024433,-0.024433,-0.024433,-0.024433,0,0,0,-61.185471,-103.878839,0,63.715121,0,0,10.140576,1,0,0,0,0,0,0,0,0,321,0,0,0
3.21,1440574.523,6143814.93,939015.1609,277.311311,-69.920912,-33.856358,0,0,0,0,-0.024433,-0.024433,-0.024433,-0.024433,0,0,0,-61.134789,-103.78356,0,63.682445,0,0,10.135376,1,0,0,0,0,0,0,0,0,322,0,0,0
3.22,1440577.296,6143814.231,939014.8224,277.285804,-69.948387,-33.859086,0,0,0,0,-0.024433,-0.024433,-0.024433,-0.024433,0,0,0,-61.084175,-103.688412,0,63.649681,0,0,10.130161,1,0,0,0,0,0,0,0,0,323,0,0,0
3.23,1440580.068,6143813.531,939014.4837,277.260421,-69.975898,-33.86183,0,0,0,0,-0.024433,-0.024433,-0.024433,-0.024433,0,0,0,-61.033637,-103.593396,0,63.616829,0,0,10.124933,1,0,0,0,0,0,0,0,0,324,0,0,0
3.24,1440582.841,6143812.831,939014.1451,277.235161,-70.003446,-33.864591,0,0,0,0,-0.024433,-0.024433,-0.024433,-0.024433,0,0,0,-60.983171,-103.49851,0,63.58389,0,0,10.11969,1,0,0,0,0,0,0,0,0,325,0,0,0
3.25,1440585.613,6143812.131,939013.8064,277.210025,-70.03103,-33.867367,0,0,0,0,-0.024433,-0.024433,-0.024433,-0.024433,0,0,0,-60.932781,-103.403757,0,63.550862,0,0,10.114434,1,0,0,0,0,0,0,0,0,326,0,0,0
3.26,1440588.385,6143811.43,939013.4677,277.185013,-70.058649,-33.870159,0,0,0,0,-0.024433,-0.024433,-0.024433,-0.024433,0,0,0,-60.882459,-103.309137,0,63.517748,0,0,10.109164,1,0,0,0,0,0,0,0,0,327,0,0,0
3.27,1440591.156,6143810.729,939013.129,277.160125,-70.086304,-33.872967,0,0,0,0,-0.024433,-0.024433,-0.024433,-0.024433,0,0,0,-60.832213,-103.214642,0,63.484545,0,0,10.103879,1,0,0,0,0,0,0,0,0,328,0,0,0
3.28,1440593.928,6143810.028,939012.7902,277.135361,-70.113995,-33.875791,0,0,0,0,-0.024433,-0.024433,-0.024433,-0.024433,0,0,0,-60.782039,-103.120282,0,63.451256,0,0,10.098581,1,0,0,0,0,0,0,0,0,329,0,0,0
3.29,1440596.699,6143809.327,939012.4514,277.110721,-70.14172,-33.87863,0,0,0,0,-0.024433,-0.024433,-0.024433,-0.024433,0,0,0,-60.731938,-103.026053,0,63.417879,0,0,10.093269,1,0,0,0,0,0,0,0,0,330,0,0,0
3.3,1440599.47,6143808.625,939012.1126,277.086205,-70.169481,-33.881486,0,0,0,0,-0.024433,-0.024433,-0.024433,-0.024433,0,0,0,-60.681908,-102.931952,0,63.384415,0,0,10.087943,1,0,0,0,0,0,0,0,0,331,0,0,0
3.31,1440602.24,6143807.923,939011.7738,277.061814,-70.197276,-33.884357,0,0,0,0,-0.024433,-0.024433,-0.024433,-0.024433,0,0,0,-60.631951,-102.837979,0,63.350864,0,0,10.082603,1,0,0,0,0,0,0,0,0,332,0,0,0
3.32,1440605.011,6143807.221,939011.4349,277.037548,-70.225106,-33.887244,0,0,0,0,-0.024433,-0.024433,-0.024433,-0.024433,0,0,0,-60.582066,-102.744137,0,63.317227,0,0,10.07725,1,0,0,0,0,0,0,0,0,333,0,0,0
3.33,1440607.781,6143806.518,939011.096,277.013406,-70.25297,-33.890147,0,0,0,0,-0.024433,-0.024433,-0.024433,-0.024433,0,0,0,-60.532253,-102.650426,0,63.283502,0,0,10.071882,1,0,0,0,0,0,0,0,0,334,0,0,0
3.34,1440610.551,6143805.815,939010.7571,276.989389,-70.280868,-33.893065,0,0,0,0,-0.024433,-0.024433,-0.024433,-0.024433,0,0,0,-60.482512,-102.556844,0,63.249692,0,0,10.066501,1,0,0,0,0,0,0,0,0,335,0,0,0
3.35,1440613.32,6143805.112,939010.4181,276.965497,-70.308801,-33.895999,0,0,0,0,-0.024433,-0.024433,-0.024433,-0.024433,0,0,0,-60.432843,-102.463389,0,63.215795,0,0,10.061106,1,0,0,0,0,0,0,0,0,336,0,0,0
3.36,1440616.09,6143804.409,939010.0791,276.94173,-70.336767,-33.898949,0,0,0,0,-0.024433,-0.024433,-0.024433,-0.024433,0,0,0,-60.383247,-102.370062,0,63.181811,0,0,10.055698,1,0,0,0,0,0,0,0,0,337,0,0,0
3.37,1440618.859,6143803.705,939009.7401,276.918089,-70.364766,-33.901914,0,0,0,0,-0.024433,-0.024433,-0.024433,-0.024433,0,0,0,-60.333722,-102.276867,0,63.147742,0,0,10.050275,1,0,0,0,0,0,0,0,0,338,0,0,0
3.38,1440621.628,6143803.001,939009.4011,276.894572,-70.392799,-33.904895,0,0,0,0,-0.024433,-0.024433,-0.024433,-0.024433,0,0,0,-60.284267,-102.183799,0,63.113586,0,0,10.044839,1,0,0,0,0,0,0,0,0,339,0,0,0
3.39,1440624.396,6143802.297,939009.062,276.871181,-70.420865,-33.907892,0,0,0,0,-0.024433,-0.024433,-0.024433,-0.024433,0,0,0,-60.234884,-102.09086,0,63.079345,0,0,10.03939,1,0,0,0,0,0,0,0,0,340,0,0,0
3.4,1440627.165,6143801.593,939008.7229,276.847915,-70.448964,-33.910904,0,0,0,0,-0.024433,-0.024433,-0.024433,-0.024433,0,0,0,-60.185573,-101.998045,0,63.045018,0,0,10.033926,1,0,0,0,0,0,0,0,0,341,0,0,0
3.41,1440629.933,6143800.888,939008.3837,276.824774,-70.477095,-33.913931,0,0,0,0,-0.024433,-0.024433,-0.024433,-0.024433,0,0,0,-60.136334,-101.905361,0,63.010605,0,0,10.028449,1,0,0,0,0,0,0,0,0,342,0,0,0
3.42,1440632.701,6143800.183,939008.0446,276.80176,-70.505259,-33.916974,0,0,0,0,-0.024433,-0.024433,-0.024433,-0.024433,0,0,0,-60.087164,-101.812805,0,62.976107,0,0,10.022959,1,0,0,0,0,0,0,0,0,343,0,0,0
3.43,1440635.469,6143799.478,939007.7054,276.778871,-70.533456,-33.920033,0,0,0,0,-0.024433,-0.024433,-0.024433,-0.024433,0,0,0,-60.03807,-101.720374,0,62.941523,0,0,10.017455,1,0,0,0,0,0,0,0,0,344,0,0,0
3.44,1440638.237,6143798.772,939007.3661,276.756108,-70.561684,-33.923107,0,0,0,0,-0.024433,-0.024433,-0.024433,-0.024433,0,0,0,-59.989041,-101.628071,0,62.906854,0,0,10.011937,1,0,0,0,0,0,0,0,0,345,0,0,0
3.45,1440641.004,6143798.066,939007.0269,276.733471,-70.589944,-33.926196,0,0,0,0,-0.024433,-0.024433,-0.024433,-0.024433,0,0,0,-59.940084,-101.535896,0,62.872101,0,0,10.006406,1,0,0,0,0,0,0,0,0,346,0,0,0
3.46,1440643.771,6143797.36,939006.6876,276.71096,-70.618236,-33.929301,0,0,0,0,-0.024433,-0.024433,-0.024433,-0.024433,0,0,0,-59.891199,-101.443845,0,62.837262,0,0,10.000861,1,0,0,0,0,0,0,0,0,347,0,0,0
3.47,1440646.538,6143796.653,939006.3482,276.688576,-70.64656,-33.932421,0,0,0,0,-0.024433,-0.024433,-0.024433,-0.024433,0,0,0,-59.842387,-101.351923,0,62.802338,0,0,9.995303,1,0,0,0,0,0,0,0,0,348,0,0,0
3.48,1440649.305,6143795.947,939006.0089,276.666317,-70.674914,-33.935556,0,0,0,0,-0.024433,-0.024433,-0.024433,-0.024433,0,0,0,-59.79364,-101.260128,0,62.76733,0,0,9.989731,1,0,0,0,0,0,0,0,0,349,0,0,0
3.49,1440652.071,6143795.24,939005.6695,276.644185,-70.7033,-33.938707,0,0,0,0,-0.024433,-0.024433,-0.024433,-0.024433,0,0,0,-59.744969,-101.168455,0,62.732237,0,0,9.984146,1,0,0,0,0,0,0,0,0,350,0,0,0
3.5,1440654.837,6143794.532,939005.3301,276.62218,-70.731717,-33.941873,0,0,0,0,-0.024433,-0.024433,-0.024433,-0.024433,0,0,0,-59.696363,-101.076913,0,62.69706,0,0,9.978547,1,0,0,0,0,0,0,0,0,351,0,0,0
3.51,1440657.603,6143793.825,939004.9906,276.600301,-70.760164,-33.945054,0,0,0,0,-0.024433,-0.024433,-0.024433,-0.024433,0,0,0,-59.647833,-100.985492,0,62.661799,0,0,9.972935,1,0,0,0,0,0,0,0,0,352,0,0,0
3.52,1440660.369,6143793.117,939004.6512,276.578548,-70.788641,-33.94825,0,0,0,0,-0.024433,-0.024433,-0.024433,-0.024433,0,0,0,-59.599369,-100.894199,0,62.626453,0,0,9.96731,1,0,0,0,0,0,0,0,0,353,0,0,0
3.53,1440663.135,6143792.409,939004.3116,276.556923,-70.817149,-33.951462,0,0,0,0,-0.024433,-0.024433,-0.024433,-0.024433,0,0,0,-59.550976,-100.803028,0,62.591024,0,0,9.961671,1,0,0,0,0,0,0,0,0,354,0,0,0
3.54,1440665.9,6143791.7,939003.9721,276.535424,-70.845687,-33.954688,0,0,0,0,-0.024433,-0.024433,-0.024433,-0.024433,0,0,0,-59.502653,-100.711985,0,62.55551,0,0,9.956019,1,0,0,0,0,0,0,0,0,355,0,0,0
3.55,1440668.665,6143790.991,939003.6325,276.514052,-70.874255,-33.95793,0,0,0,0,-0.024433,-0.024433,-0.024433,-0.024433,0,0,0,-59.454398,-100.621066,0,62.519913,0,0,9.950353,1,0,0,0,0,0,0,0,0,356,0,0,0
3.56,1440671.43,6143790.282,939003.2929,276.492808,-70.902852,-33.961187,0,0,0,0,-0.024433,-0.024433,-0.024433,-0.024433,0,0,0,-59.406216,-100.530272,0,62.484232,0,0,9.944674,1,0,0,0,0,0,0,0,0,357,0,0,0
3.57,1440674.195,6143789.573,939002.9533,276.471691,-70.931478,-33.964459,0,0,0,0,-0.024433,-0.024433,-0.024433,-0.024433,0,0,0,-59.359277,-100.440764,0,62.448468,0,0,9.938982,1,0,0,0,0,0,0,0,0,358,0,0,0
3.58,1440676.959,6143788.864,939002.6136,276.4507,-70.960134,-33.967746,0,0,0,0,-0.024433,-0.024433,-0.024433,-0.024433,0,0,0,-59.312538,-100.351503,0,62.412621,0,0,9.933277,1,0,0,0,0,0,0,0,0,359,0,0,0
3.59,1440679.724,6143788.154,939002.2739,276.429838,-70.988819,-33.971048,0,0,0,0,-0.024433,-0.024433,-0.024433,-0.024433,0,0,0,-59.265865,-100.262365,0,62.37669,0,0,9.927559,1,0,0,0,0,0,0,0,0,360,0,0,0
3.6,1440682.488,6143787.443,939001.9341,276.409102,-71.017532,-33.974365,0,0,0,0,-0.024433,-0.024433,-0.024433,-0.024433,0,0,0,-59.21926,-100.173343,0,62.340677,0,0,9.921827,1,0,0,0,0,0,0,0,0,361,0,0,0
3.61,1440685.252,6143786.733,939001.5943,276.388494,-71.046274,-33.977696,0,0,0,0,-0.024433,-0.024433,-0.024433,-0.024433,0,0,0,-59.172718,-100.084439,0,62.30458,0,0,9.916082,1,0,0,0,0,0,0,0,0,362,0,0,0
3.62,1440688.015,6143786.022,939001.2545,276.368014,-71.075045,-33.981043,0,0,0,0,-0.024433,-0.024433,-0.024433,-0.024433,0,0,0,-59.126242,-99.995656,0,62.268401,0,0,9.910324,1,0,0,0,0,0,0,0,0,363,0,0,0
3.63,1440690.779,6143785.311,939000.9147,276.347662,-71.103843,-33.984405,0,0,0,0,-0.024433,-0.024433,-0.024433,-0.024433,0,0,0,-59.079831,-99.906991,0,62.232139,0,0,9.904553,1,0,0,0,0,0,0,0,0,364,0,0,0
3.64,1440693.542,6143784.6,939000.5748,276.327437,-71.13267,-33.987781,0,0,0,0,-0.024433,-0.024433,-0.024433,-0.024433,0,0,0,-59.033486,-99.818442,0,62.195795,0,0,9.898768,1,0,0,0,0,0,0,0,0,365,0,0,0
3.65,1440696.305,6143783.888,939000.2349,276.30734,-71.161524,-33.991173,0,0,0,0,-0.024433,-0.024433,-0.024433,-0.024433,0,0,0,-58.987207,-99.730013,0,62.159368,0,0,9.892971,1,0,0,0,0,0,0,0,0,366,0,0,0
3.66,1440699.068,6143783.176,938999.895,276.287372,-71.190405,-33.994579,0,0,0,0,-0.024433,-0.024433,-0.024433,-0.024433,0,0,0,-58.940993,-99.641699,0,62.122859,0,0,9.88716,1,0,0,0,0,0,0,0,0,367,0,0,0
3.67,1440701.831,6143782.464,938999.555,276.267531,-71.219314,-33.998,0,0,0,0,-0.024433,-0.024433,-0.024433,-0.024433,0,0,0,-58.894844,-99.553507,0,62.086268,0,0,9.881336,1,0,0,0,0,0,0,0,0,368,0,0,0
3.68,1440704.593,6143781.752,938999.215,276.247818,-71.24825,-34.001436,0,0,0,0,-0.024433,-0.024433,-0.024433,-0.024433,0,0,0,-58.848758,-99.46543,0,62.049595,0,0,9.8755,1,0,0,0,0,0,0,0,0,369,0,0,0
3.69,1440707.355,6143781.039,938998.8749,276.228234,-71.277213,-34.004886,0,0,0,0,-0.024433,-0.024433,-0.024433,-0.024433,0,0,0,-58.802738,-99.377467,0,62.012841,0,0,9.86965,1,0,0,0,0,0,0,0,0,370,0,0,0
3.7,1440710.117,6143780.326,938998.5348,276.208778,-71.306203,-34.008351,0,0,0,0,-0.024433,-0.024433,-0.024433,-0.024433,0,0,0,-58.756783,-99.289626,0,61.976005,0,0,9.863788,1,0,0,0,0,0,0,0,0,371,0,0,0
3.71,1440712.879,6143779.613,938998.1947,276.189451,-71.335218,-34.011831,0,0,0,0,-0.024433,-0.024433,-0.024433,-0.024433,0,0,0,-58.710894,-99.201896,0,61.939087,0,0,9.857912,1,0,0,0,0,0,0,0,0,372,0,0,0
3.72,1440715.641,6143778.899,938997.8546,276.170252,-71.364261,-34.015325,0,0,0,0,-0.024433,-0.024433,-0.024433,-0.024433,0,0,0,-58.665067,-99.114288,0,61.902088,0,0,9.852023,1,0,0,0,0,0,0,0,0,373,0,0,0
3.73,1440718.403,6143778.185,938997.5144,276.151182,-71.393329,-34.018834,0,0,0,0,-0.024433,-0.024433,-0.024433,-0.024433,0,0,0,-58.61931,-99.026795,0,61.865008,0,0,9.846122,1,0,0,0,0,0,0,0,0,374,0,0,0
3.74,1440721.164,6143777.471,938997.1741,276.13224,-71.422423,-34.022358,0,0,0,0,-0.024433,-0.024433,-0.024433,-0.024433,0,0,0,-58.573611,-98.939416,0,61.827846,0,0,9.840207,1,0,0,0,0,0,0,0,0,375,0,0,0
3.75,1440723.925,6143776.756,938996.8339,276.113427,-71.451543,-34.025896,0,0,0,0,-0.024433,-0.024433,-0.024433,-0.024433,0,0,0,-58.527981,-98.852155,0,61.790604,0,0,9.83428,1,0,0,0,0,0,0,0,0,376,0,0,0
3.76,1440726.686,6143776.041,938996.4936,276.094743,-71.480688,-34.029449,0,0,0,0,-0.024433,-0.024433,-0.024433,-0.024433,0,0,0,-58.48241,-98.76501,0,61.753281,0,0,9.82834,1,0,0,0,0,0,0,0,0,377,0,0,0
3.77,1440729.447,6143775.326,938996.1533,276.076188,-71.509858,-34.033016,0,0,0,0,-0.024433,-0.024433,-0.024433,-0.024433,0,0,0,-58.436908,-98.677979,0,61.715877,0,0,9.822387,1,0,0,0,0,0,0,0,0,378,0,0,0
3.78,1440732.207,6143774.611,938995.8129,276.057762,-71.539053,-34.036597,0,0,0,0,-0.024433,-0.024433,-0.024433,-0.024433,0,0,0,-58.391468,-98.591063,0,61.678393,0,0,9.816421,1,0,0,0,0,0,0,0,0,379,0,0,0
3.79,1440734.968,6143773.895,938995.4725,276.039464,-71.568273,-34.040193,0,0,0,0,-0.024433,-0.024433,-0.024433,-0.024433,0,0,0,-58.346091,-98.504265,0,61.640829,0,0,9.810443,1,0,0,0,0,0,0,0,0,380,0,0,0
3.8,1440737.728,6143773.179,938995.1321,276.021296,-71.597518,-34.043804,0,0,0,0,-0.024433,-0.024433,-0.024433,-0.024433,0,0,0,-58.300779,-98.417579,0,61.603184,0,0,9.804451,1,0,0,0,0,0,0,0,0,381,0,0,0
3.81,1440740.488,6143772.463,938994.7916,276.003258,-71.626787,-34.047428,0,0,0,0,-0.024433,-0.024433,-0.024433,-0.024433,0,0,0,-58.255533,-98.33101,0,61.56546,0,0,9.798447,1,0,0,0,0,0,0,0,0,382,0,0,0
3.82,1440743.248,6143771.746,938994.4511,275.985348,-71.65608,-34.051067,0,0,0,0,-0.024433,-0.024433,-0.024433,-0.024433,0,0,0,-58.21035,-98.244557,0,61.527655,0,0,9.79243,1,0,0,0,0,0,0,0,0,383,0,0,0
3.83,1440746.007,6143771.03,938994.1105,275.967568,-71.685397,-34.054721,0,0,0,0,-0.024433,-0.024433,-0.024433,-0.024433,0,0,0,-58.165228,-98.158215,0,61.489771,0,0,9.786401,1,0,0,0,0,0,0,0,0,384,0,0,0
3.84,1440748.767,6143770.312,938993.7699,275.949918,-71.714737,-34.058388,0,0,0,0,-0.024433,-0.024433,-0.024433,-0.024433,0,0,0,-58.120169,-98.071988,0,61.451807,0,0,9.780359,1,0,0,0,0,0,0,0,0,385,0,0,0
3.85,1440751.526,6143769.595,938993.4293,275.932397,-71.744101,-34.06207,0,0,0,0,-0.024433,-0.024433,-0.024433,-0.024433,0,0,0,-58.075176,-97.985876,0,61.413763,0,0,9.774304,1,0,0,0,0,0,0,0,0,386,0,0,0
3.86,1440754.285,6143768.877,938993.0887,275.915005,-71.773489,-34.065766,0,0,0,0,-0.024433,-0.024433,-0.024433,-0.024433,0,0,0,-58.030245,-97.899878,0,61.375641,0,0,9.768237,1,0,0,0,0,0,0,0,0,387,0,0,0
3.87,1440757.044,6143768.159,938992.748,275.897743,-71.802899,-34.069476,0,0,0,0,-0.024433,-0.024433,-0.024433,-0.024433,0,0,0,-57.985379,-97.813996,0,61.337439,0,0,9.762157,1,0,0,0,0,0,0,0,0,388,0,0,0
3.88,1440759.803,6143767.441,938992.4072,275.880611,-71.832333,-34.073201,0,0,0,0,-0.024433,-0.024433,-0.024433,-0.024433,0,0,0,-57.940576,-97.728225,0,61.299158,0,0,9.756064,1,0,0,0,0,0,0,0,0,389,0,0,0
3.89,1440762.562,6143766.722,938992.0665,275.863609,-71.861789,-34.076939,0,0,0,0,-0.024433,-0.024433,-0.024433,-0.024433,0,0,0,-57.895835,-97.642569,0,61.260798,0,0,9.749959,1,0,0,0,0,0,0,0,0,390,0,0,0
3.9,1440765.32,6143766.003,938991.7257,275.846737,-71.891267,-34.080692,0,0,0,0,-0.024433,-0.024433,-0.024433,-0.024433,0,0,0,-57.851157,-97.557024,0,61.22236,0,0,9.743841,1,0,0,0,0,0,0,0,0,391,0,0,0
3.91,1440768.079,6143765.284,938991.3848,275.829995,-71.920768,-34.084458,0,0,0,0,-0.024433,-0.024433,-0.024433,-0.024433,0,0,0,-57.806541,-97.471594,0,61.183843,0,0,9.737711,1,0,0,0,0,0,0,0,0,392,0,0,0
3.92,1440770.837,6143764.565,938991.0439,275.81338,-71.95029,-34.088239,0,0,0,0,-0.024433,-0.024433,-0.024433,-0.024433,0,0,0,-57.761987,-97.386276,0,61.145247,0,0,9.731568,1,0,0,0,0,0,0,0,0,393,0,0,0
3.93,1440773.595,6143763.845,938990.703,275.796894,-71.979833,-34.092033,0,0,0,0,-0.024433,-0.024433,-0.024433,-0.024433,0,0,0,-57.717499,-97.301069,0,61.106573,0,0,9.725413,1,0,0,0,0,0,0,0,0,394,0,0,0
3.94,1440776.353,6143763.125,938990.3621,275.780536,-72.009398,-34.095841,0,0,0,0,-0.024433,-0.024433,-0.024433,-0.024433,0,0,0,-57.673073,-97.215978,0,61.067822,0,0,9.719246,1,0,0,0,0,0,0,0,0,395,0,0,0
3.95,1440779.11,6143762.404,938990.0211,275.764306,-72.038983,-34.099662,0,0,0,0,-0.024433,-0.024433,-0.024433,-0.024433,0,0,0,-57.628706,-97.130997,0,61.028992,0,0,9.713066,1,0,0,0,0,0,0,0,0,396,0,0,0
3.96,1440781.868,6143761.684,938989.68,275.748205,-72.068589,-34.103497,0,0,0,0,-0.024433,-0.024433,-0.024433,-0.024433,0,0,0,-57.584405,-97.046128,0,60.990084,0,0,9.706873,1,0,0,0,0,0,0,0,0,397,0,0,0
3.97,1440784.625,6143760.963,938989.339,275.732232,-72.098216,-34.107346,0,0,0,0,-0.024433,-0.024433,-0.024433,-0.024433,0,0,0,-57.540166,-96.961371,0,60.951099,0,0,9.700669,1,0,0,0,0,0,0,0,0,398,0,0,0
3.98,1440787.382,6143760.241,938988.9978,275.716387,-72.127862,-34.111208,0,0,0,0,-0.024433,-0.024433,-0.024433,-0.024433,0,0,0,-57.495986,-96.876729,0,60.912036,0,0,9.694452,1,0,0,0,0,0,0,0,0,399,0,0,0
3.99,1440790.139,6143759.52,938988.6567,275.700671,-72.157529,-34.115084,0,0,0,0,-0.024433,-0.024433,-0.024433,-0.024433,0,0,0,-57.451872,-96.792195,0,60.872895,0,0,9.688222,1,0,0,0,0,0,0,0,0,400,0,0,0
4,1440792.896,6143758.798,938988.3155,275.685083,-72.187215,-34.118974,0,0,0,0,-0.024433,-0.024433,-0.024433,-0.024433,0,0,0,-57.40782,-96.707775,0,60.833678,0,0,9.681981,1,0,0,0,0,0,0,0,0,401,0,0,0
4.01,1440795.653,6143758.076,938987.9743,275.669624,-72.216921,-34.122877,0,0,0,0,-0.024433,-0.024433,-0.024433,-0.024433,0,0,0,-57.363827,-96.623464,0,60.794383,0,0,9.675727,1,0,0,0,0,0,0,0,0,402,0,0,0
4.02,1440798.409,6143757.353,938987.633,275.654293,-72.246647,-34.126793,0,0,0,0,-0.024433,-0.024433,-0.024433,-0.024433,0,0,0,-57.319897,-96.539265,0,60.755012,0,0,9.66946,1,0,0,0,0,0,0,0,0,403,0,0,0
4.03,1440801.166,6143756.631,938987.2917,275.63909,-72.276391,-34.130723,0,0,0,0,-0.024433,-0.024433,-0.024433,-0.024433,0,0,0,-57.276029,-96.455177,0,60.715563,0,0,9.663182,1,0,0,0,0,0,0,0,0,404,0,0,0
4.04,1440803.922,6143755.908,938986.9503,275.624014,-72.306154,-34.134665,0,0,0,0,-0.024433,-0.024433,-0.024433,-0.024433,0,0,0,-57.232223,-96.371201,0,60.676038,0,0,9.656891,1,0,0,0,0,0,0,0,0,405,0,0,0
4.05,1440806.678,6143755.184,938986.609,275.609067,-72.335936,-34.138622,0,0,0,0,-0.024433,-0.024433,-0.024433,-0.024433,0,0,0,-57.18848,-96.287332,0,60.636437,0,0,9.650589,1,0,0,0,0,0,0,0,0,406,0,0,0
4.06,1440809.434,6143754.46,938986.2675,275.594249,-72.365736,-34.142591,0,0,0,0,-0.024433,-0.024433,-0.024433,-0.024433,0,0,0,-57.144798,-96.203576,0,60.596759,0,0,9.644274,1,0,0,0,0,0,0,0,0,407,0,0,0
4.07,1440812.19,6143753.737,938985.9261,275.579558,-72.395554,-34.146574,0,0,0,0,-0.024433,-0.024433,-0.024433,-0.024433,0,0,0,-57.101176,-96.119931,0,60.557005,0,0,9.637947,1,0,0,0,0,0,0,0,0,408,0,0,0
4.08,1440814.945,6143753.012,938985.5846,275.564996,-72.42539,-34.15057,0,0,0,0,-0.024433,-0.024433,-0.024433,-0.024433,0,0,0,-57.057617,-96.036394,0,60.517175,0,0,9.631608,1,0,0,0,0,0,0,0,0,409,0,0,0
4.09,1440817.701,6143752.288,938985.243,275.550562,-72.455244,-34.154578,0,0,0,0,-0.024433,-0.024433,-0.024433,-0.024433,0,0,0,-57.014116,-95.952966,0,60.477269,0,0,9.625256,1,0,0,0,0,0,0,0,0,410,0,0,0
4.1,1440820.456,6143751.563,938984.9014,275.536256,-72.485115,-34.158601,0,0,0,0,-0.024433,-0.024433,-0.024433,-0.024433,0,0,0,-56.970681,-95.869649,0,60.437288,0,0,9.618893,1,0,0,0,0,0,0,0,0,411,0,0,0
4.11,1440823.211,6143750.838,938984.5598,275.522079,-72.515003,-34.162636,0,0,0,0,-0.024433,-0.024433,-0.024433,-0.024433,0,0,0,-56.927302,-95.786443,0,60.397231,0,0,9.612518,1,0,0,0,0,0,0,0,0,412,0,0,0
4.12,1440825.967,6143750.112,938984.2181,275.50803,-72.544909,-34.166684,0,0,0,0,-0.024433,-0.024433,-0.024433,-0.024433,0,0,0,-56.883988,-95.703343,0,60.357099,0,0,9.606131,1,0,0,0,0,0,0,0,0,413,0,0,0
4.13,1440828.721,6143749.387,938983.8764,275.49411,-72.574831,-34.170745,0,0,0,0,-0.024433,-0.024433,-0.024433,-0.024433,0,0,0,-56.840733,-95.620354,0,60.316891,0,0,9.599731,1,0,0,0,0,0,0,0,0,414,0,0,0
4.14,1440831.476,6143748.66,938983.5347,275.480318,-72.604771,-34.174819,0,0,0,0,-0.024433,-0.024433,-0.024433,-0.024433,0,0,0,-56.797541,-95.537477,0,60.276608,0,0,9.59332,1,0,0,0,0,0,0,0,0,415,0,0,0
4.15,1440834.231,6143747.934,938983.1929,275.466655,-72.634726,-34.178906,0,0,0,0,-0.024433,-0.024433,-0.024433,-0.024433,0,0,0,-56.754408,-95.454705,0,60.23625,0,0,9.586897,1,0,0,0,0,0,0,0,0,416,0,0,0
4.16,1440836.985,6143747.207,938982.8511,275.453121,-72.664698,-34.183007,0,0,0,0,-0.024433,-0.024433,-0.024433,-0.024433,0,0,0,-56.711334,-95.37204,0,60.195818,0,0,9.580462,1,0,0,0,0,0,0,0,0,417,0,0,0
4.17,1440839.74,6143746.481,938982.5092,275.439715,-72.694686,-34.18712,0,0,0,0,-0.024433,-0.024433,-0.024433,-0.024433,0,0,0,-56.668322,-95.289488,0,60.155311,0,0,9.574015,1,0,0,0,0,0,0,0,0,418,0,0,0
4.18,1440842.494,6143745.753,938982.1673,275.426439,-72.72469,-34.191245,0,0,0,0,-0.024433,-0.024433,-0.024433,-0.024433,0,0,0,-56.625373,-95.207044,0,60.114729,0,0,9.567556,1,0,0,0,0,0,0,0,0,419,0,0,0
4.19,1440845.248,6143745.026,938981.8253,275.413291,-72.75471,-34.195384,0,0,0,0,-0.024433,-0.024433,-0.024433,-0.024433,0,0,0,-56.582482,-95.124704,0,60.074073,0,0,9.561086,1,0,0,0,0,0,0,0,0,420,0,0,0
4.2,1440848.002,6143744.298,938981.4833,275.400272,-72.784745,-34.199536,0,0,0,0,-0.024433,-0.024433,-0.024433,-0.024433,0,0,0,-56.539651,-95.042474,0,60.033343,0,0,9.554603,1,0,0,0,0,0,0,0,0,421,0,0,0
4.21,1440850.756,6143743.57,938981.1413,275.387382,-72.814795,-34.2037,0,0,0,0,-0.024433,-0.024433,-0.024433,-0.024433,0,0,0,-56.496878,-94.960354,0,59.992539,0,0,9.548109,1,0,0,0,0,0,0,0,0,422,0,0,0
4.22,1440853.51,6143742.841,938980.7992,275.374621,-72.84486,-34.207877,0,0,0,0,-0.024433,-0.024433,-0.024433,-0.024433,0,0,0,-56.454168,-94.87834,0,59.951662,0,0,9.541603,1,0,0,0,0,0,0,0,0,423,0,0,0
4.23,1440856.263,6143742.113,938980.4571,275.361989,-72.87494,-34.212066,0,0,0,0,-0.024433,-0.024433,-0.024433,-0.024433,0,0,0,-56.411521,-94.79643,0,59.91071,0,0,9.535086,1,0,0,0,0,0,0,0,0,424,0,0,0
4.24,1440859.017,6143741.384,938980.1149,275.349487,-72.905034,-34.216269,0,0,0,0,-0.024433,-0.024433,-0.024433,-0.024433,0,0,0,-56.368929,-94.714632,0,59.869685,0,0,9.528556,1,0,0,0,0,0,0,0,0,425,0,0,0
4.25,1440861.77,6143740.654,938979.7727,275.337113,-72.935143,-34.220484,0,0,0,0,-0.024433,-0.024433,-0.024433,-0.024433,0,0,0,-56.326399,-94.632939,0,59.828587,0,0,9.522015,1,0,0,0,0,0,0,0,0,426,0,0,0
4.26,1440864.524,6143739.925,938979.4305,275.324869,-72.965266,-34.224711,0,0,0,0,-0.024433,-0.024433,-0.024433,-0.024433,0,0,0,-56.283929,-94.551351,0,59.787415,0,0,9.515463,1,0,0,0,0,0,0,0,0,427,0,0,0
4.27,1440867.277,6143739.195,938979.0882,275.312754,-72.995403,-34.228951,0,0,0,0,-0.024433,-0.024433,-0.024433,-0.024433,0,0,0,-56.241518,-94.469872,0,59.74617,0,0,9.508898,1,0,0,0,0,0,0,0,0,428,0,0,0
4.28,1440870.03,6143738.464,938978.7459,275.300768,-73.025554,-34.233204,0,0,0,0,-0.024433,-0.024433,-0.024433,-0.024433,0,0,0,-56.199168,-94.3885,0,59.704853,0,0,9.502322,1,0,0,0,0,0,0,0,0,429,0,0,0
4.29,1440872.783,6143737.734,938978.4035,275.288912,-73.055718,-34.237469,0,0,0,0,-0.024433,-0.024433,-0.024433,-0.024433,0,0,0,-56.156875,-94.307234,0,59.663463,0,0,9.495735,1,0,0,0,0,0,0,0,0,430,0,0,0
4.3,1440875.535,6143737.003,938978.0611,275.277185,-73.085896,-34.241747,0,0,0,0,-0.024433,-0.024433,-0.024433,-0.024433,0,0,0,-56.114644,-94.226076,0,59.622,0,0,9.489136,1,0,0,0,0,0,0,0,0,431,0,0,0
4.31,1440878.288,6143736.272,938977.7186,275.265587,-73.116087,-34.246037,0,0,0,0,-0.024433,-0.024433,-0.024433,-0.024433,0,0,0,-56.072472,-94.145019,0,59.580464,0,0,9.482525,1,0,0,0,0,0,0,0,0,432,0,0,0
4.32,1440881.041,6143735.54,938977.3761,275.254119,-73.14629,-34.25034,0,0,0,0,-0.024433,-0.024433,-0.024433,-0.024433,0,0,0,-56.030356,-94.064071,0,59.538857,0,0,9.475903,1,0,0,0,0,0,0,0,0,433,0,0,0
4.33,1440883.793,6143734.808,938977.0336,275.242781,-73.176507,-34.254654,0,0,0,0,-0.024433,-0.024433,-0.024433,-0.024433,0,0,0,-55.988302,-93.983228,0,59.497177,0,0,9.46927,1,0,0,0,0,0,0,0,0,434,0,0,0
4.34,1440886.545,6143734.076,938976.691,275.231572,-73.206736,-34.258982,0,0,0,0,-0.024433,-0.024433,-0.024433,-0.024433,0,0,0,-55.946308,-93.902493,0,59.455426,0,0,9.462625,1,0,0,0,0,0,0,0,0,435,0,0,0
4.35,1440889.298,6143733.344,938976.3483,275.220492,-73.236977,-34.263321,0,0,0,0,-0.024433,-0.024433,-0.024433,-0.024433,0,0,0,-55.904372,-93.82186,0,59.413603,0,0,9.455969,1,0,0,0,0,0,0,0,0,436,0,0,0
4.36,1440892.05,6143732.611,938976.0057,275.209542,-73.26723,-34.267673,0,0,0,0,-0.024433,-0.024433,-0.024433,-0.024433,0,0,0,-55.862495,-93.741335,0,59.371708,0,0,9.449301,1,0,0,0,0,0,0,0,0,437,0,0,0
4.37,1440894.802,6143731.878,938975.6629,275.198722,-73.297495,-34.272037,0,0,0,0,-0.024433,-0.024433,-0.024433,-0.024433,0,0,0,-55.820678,-93.660912,0,59.329741,0,0,9.442622,1,0,0,0,0,0,0,0,0,438,0,0,0
4.38,1440897.554,6143731.145,938975.3202,275.188032,-73.327772,-34.276413,0,0,0,0,-0.024433,-0.024433,-0.024433,-0.024433,0,0,0,-55.778916,-93.580597,0,59.287704,0,0,9.435931,1,0,0,0,0,0,0,0,0,439,0,0,0
4.39,1440900.305,6143730.412,938974.9774,275.177471,-73.35806,-34.280802,0,0,0,0,-0.024433,-0.024433,-0.024433,-0.024433,0,0,0,-55.737216,-93.500384,0,59.245595,0,0,9.429229,1,0,0,0,0,0,0,0,0,440,0,0,0
4.4,1440903.057,6143729.678,938974.6345,275.16704,-73.38836,-34.285202,0,0,0,0,-0.024433,-0.024433,-0.024433,-0.024433,0,0,0,-55.695573,-93.420279,0,59.203415,0,0,9.422516,1,0,0,0,0,0,0,0,0,441,0,0,0
4.41,1440905.809,6143728.943,938974.2916,275.156739,-73.41867,-34.289615,0,0,0,0,-0.024433,-0.024433,-0.024433,-0.024433,0,0,0,-55.653991,-93.340275,0,59.161165,0,0,9.415792,1,0,0,0,0,0,0,0,0,442,0,0,0
4.42,1440908.56,6143728.209,938973.9487,275.146568,-73.448991,-34.29404,0,0,0,0,-0.024433,-0.024433,-0.024433,-0.024433,0,0,0,-55.612466,-93.260377,0,59.118844,0,0,9.409056,1,0,0,0,0,0,0,0,0,443,0,0,0
4.43,1440911.311,6143727.474,938973.6057,275.136526,-73.479323,-34.298477,0,0,0,0,-0.024433,-0.024433,-0.024433,-0.024433,0,0,0,-55.570996,-93.18058,0,59.076452,0,0,9.402309,1,0,0,0,0,0,0,0,0,444,0,0,0
4.44,1440914.063,6143726.739,938973.2627,275.126615,-73.509666,-34.302925,0,0,0,0,-0.024433,-0.024433,-0.024433,-0.024433,0,0,0,-55.529588,-93.100889,0,59.03399,0,0,9.395551,1,0,0,0,0,0,0,0,0,445,0,0,0
4.45,1440916.814,6143726.004,938972.9196,275.116833,-73.540018,-34.307386,0,0,0,0,-0.024433,-0.024433,-0.024433,-0.024433,0,0,0,-55.488237,-93.021302,0,58.991458,0,0,9.388782,1,0,0,0,0,0,0,0,0,446,0,0,0
4.46,1440919.565,6143725.268,938972.5765,275.107181,-73.570381,-34.311859,0,0,0,0,-0.024433,-0.024433,-0.024433,-0.024433,0,0,0,-55.446947,-92.941821,0,58.948856,0,0,9.382002,1,0,0,0,0,0,0,0,0,447,0,0,0
4.47,1440922.316,6143724.532,938972.2333,275.09766,-73.600753,-34.316344,0,0,0,0,-0.024433,-0.024433,-0.024433,-0.024433,0,0,0,-55.40571,-92.862437,0,58.906185,0,0,9.375211,1,0,0,0,0,0,0,0,0,448,0,0,0
4.48,1440925.067,6143723.796,938971.8901,275.088268,-73.631135,-34.32084,0,0,0,0,-0.024433,-0.024433,-0.024433,-0.024433,0,0,0,-55.364536,-92.783162,0,58.863443,0,0,9.368408,1,0,0,0,0,0,0,0,0,449,0,0,0
4.49,1440927.818,6143723.059,938971.5468,275.079006,-73.661526,-34.325348,0,0,0,0,-0.024433,-0.024433,-0.024433,-0.024433,0,0,0,-55.323417,-92.703986,0,58.820632,0,0,9.361594,1,0,0,0,0,0,0,0,0,450,0,0,0
4.5,1440930.568,6143722.322,938971.2035,275.069875,-73.691927,-34.329869,0,0,0,0,-0.024433,-0.024433,-0.024433,-0.024433,0,0,0,-55.282354,-92.624918,0,58.777752,0,0,9.35477,1,0,0,0,0,0,0,0,0,451,0,0,0
4.51,1440933.319,6143721.585,938970.8602,275.060873,-73.722336,-34.3344,0,0,0,0,-0.024433,-0.024433,-0.024433,-0.024433,0,0,0,-55.241353,-92.545948,0,58.734803,0,0,9.347934,1,0,0,0,0,0,0,0,0,452,0,0,0
4.52,1440936.069,6143720.847,938970.5168,275.052002,-73.752754,-34.338944,0,0,0,0,-0.024433,-0.024433,-0.024433,-0.024433,0,0,0,-55.200405,-92.46708,0,58.691784,0,0,9.341088,1,0,0,0,0,0,0,0,0,453,0,0,0
4.53,1440938.82,6143720.11,938970.1734,275.04326,-73.783181,-34.343499,0,0,0,0,-0.024433,-0.024433,-0.024433,-0.024433,0,0,0,-55.159519,-92.388317,0,58.648697,0,0,9.33423,1,0,0,0,0,0,0,0,0,454,0,0,0
4.54,1440941.57,6143719.371,938969.8299,275.034649,-73.813616,-34.348067,0,0,0,0,-0.024433,-0.024433,-0.024433,-0.024433,0,0,0,-55.120628,-92.311463,0,58.605541,0,0,9.327362,1,0,0,0,0,0,0,0,0,455,0,0,0
4.55,1440944.32,6143718.633,938969.4864,275.026169,-73.844059,-34.352645,0,0,0,0,-0.024433,-0.024433,-0.024433,-0.024433,0,0,0,-55.082105,-92.234996,0,58.562317,0,0,9.320482,1,0,0,0,0,0,0,0,0,456,0,0,0
4.56,1440947.071,6143717.894,938969.1428,275.017818,-73.87451,-34.357235,0,0,0,0,-0.024433,-0.024433,-0.024433,-0.024433,0,0,0,-55.043624,-92.158612,0,58.519024,0,0,9.313592,1,0,0,0,0,0,0,0,0,457,0,0,0
4.57,1440949.821,6143717.155,938968.7992,275.009598,-73.904968,-34.361837,0,0,0,0,-0.024433,-0.024433,-0.024433,-0.024433,0,0,0,-55.005182,-92.082313,0,58.475663,0,0,9.306691,1,0,0,0,0,0,0,0,0,458,0,0,0
4.58,1440952.571,6143716.416,938968.4555,275.001508,-73.935434,-34.366451,0,0,0,0,-0.024433,-0.024433,-0.024433,-0.024433,0,0,0,-54.96678,-92.006099,0,58.432234,0,0,9.299779,1,0,0,0,0,0,0,0,0,459,0,0,0
4.59,1440955.321,6143715.676,938968.1118,274.993548,-73.965908,-34.371076,0,0,0,0,-0.024433,-0.024433,-0.024433,-0.024433,0,0,0,-54.92842,-91.929967,0,58.388738,0,0,9.292856,1,0,0,0,0,0,0,0,0,460,0,0,0
4.6,1440958.07,6143714.936,938967.768,274.985718,-73.996388,-34.375712,0,0,0,0,-0.024433,-0.024433,-0.024433,-0.024433,0,0,0,-54.8901,-91.853917,0,58.345174,0,0,9.285923,1,0,0,0,0,0,0,0,0,461,0,0,0
4.61,1440960.82,6143714.196,938967.4242,274.978019,-74.026875,-34.38036,0,0,0,0,-0.024433,-0.024433,-0.024433,-0.024433,0,0,0,-54.851819,-91.777952,0,58.301542,0,0,9.278979,1,0,0,0,0,0,0,0,0,462,0,0,0
4.62,1440963.57,6143713.455,938967.0804,274.97045,-74.057369,-34.385019,0,0,0,0,-0.024433,-0.024433,-0.024433,-0.024433,0,0,0,-54.813581,-91.702073,0,58.257843,0,0,9.272024,1,0,0,0,0,0,0,0,0,463,0,0,0
4.63,1440966.32,6143712.714,938966.7365,274.963011,-74.08787,-34.389689,0,0,0,0,-0.024433,-0.024433,-0.024433,-0.024433,0,0,0,-54.775386,-91.626276,0,58.214076,0,0,9.265058,1,0,0,0,0,0,0,0,0,464,0,0,0
4.64,1440969.069,6143711.973,938966.3926,274.955703,-74.118376,-34.394371,0,0,0,0,-0.024433,-0.024433,-0.024433,-0.024433,0,0,0,-54.737226,-91.550561,0,58.170243,0,0,9.258082,1,0,0,0,0,0,0,0,0,465,0,0,0
4.65,1440971.819,6143711.232,938966.0486,274.948525,-74.148889,-34.399064,0,0,0,0,-0.024433,-0.024433,-0.024433,-0.024433,0,0,0,-54.699109,-91.474927,0,58.126343,0,0,9.251095,1,0,0,0,0,0,0,0,0,466,0,0,0
4.66,1440974.568,6143710.49,938965.7045,274.941478,-74.179408,-34.403769,0,0,0,0,-0.024433,-0.024433,-0.024433,-0.024433,0,0,0,-54.661032,-91.39938,0,58.082376,0,0,9.244097,1,0,0,0,0,0,0,0,0,467,0,0,0
4.67,1440977.317,6143709.748,938965.3604,274.934561,-74.209932,-34.408484,0,0,0,0,-0.024433,-0.024433,-0.024433,-0.024433,0,0,0,-54.622997,-91.323914,0,58.038343,0,0,9.237089,1,0,0,0,0,0,0,0,0,468,0,0,0
4.68,1440980.067,6143709.006,938965.0163,274.927774,-74.240461,-34.413211,0,0,0,0,-0.024433,-0.024433,-0.024433,-0.024433,0,0,0,-54.585002,-91.248533,0,57.994244,0,0,9.230071,1,0,0,0,0,0,0,0,0,469,0,0,0
4.69,1440982.816,6143708.263,938964.6721,274.921117,-74.270996,-34.417949,0,0,0,0,-0.024433,-0.024433,-0.024433,-0.024433,0,0,0,-54.547046,-91.173235,0,57.950078,0,0,9.223041,1,0,0,0,0,0,0,0,0,470,0,0,0
4.7,1440985.565,6143707.52,938964.3279,274.914591,-74.301535,-34.422698,0,0,0,0,-0.024433,-0.024433,-0.024433,-0.024433,0,0,0,-54.509132,-91.098018,0,57.905847,0,0,9.216002,1,0,0,0,0,0,0,0,0,471,0,0,0
4.71,1440988.314,6143706.776,938963.9836,274.908196,-74.33208,-34.427458,0,0,0,0,-0.024433,-0.024433,-0.024433,-0.024433,0,0,0,-54.471258,-91.022883,0,57.861549,0,0,9.208952,1,0,0,0,0,0,0,0,0,472,0,0,0
4.72,1440991.063,6143706.033,938963.6393,274.901931,-74.362629,-34.432229,0,0,0,0,-0.024433,-0.024433,-0.024433,-0.024433,0,0,0,-54.433424,-90.947834,0,57.817186,0,0,9.201891,1,0,0,0,0,0,0,0,0,473,0,0,0
4.73,1440993.812,6143705.289,938963.2949,274.895796,-74.393182,-34.437012,0,0,0,0,-0.024433,-0.024433,-0.024433,-0.024433,0,0,0,-54.395632,-90.872864,0,57.772758,0,0,9.19482,1,0,0,0,0,0,0,0,0,474,0,0,0
4.74,1440996.561,6143704.545,938962.9505,274.889792,-74.42374,-34.441805,0,0,0,0,-0.024433,-0.024433,-0.024433,-0.024433,0,0,0,-54.357879,-90.797979,0,57.728264,0,0,9.187739,1,0,0,0,0,0,0,0,0,475,0,0,0
4.75,1440999.31,6143703.8,938962.606,274.883918,-74.454301,-34.446609,0,0,0,0,-0.024433,-0.024433,-0.024433,-0.024433,0,0,0,-54.320166,-90.723175,0,57.683706,0,0,9.180647,1,0,0,0,0,0,0,0,0,476,0,0,0
4.76,1441002.059,6143703.055,938962.2615,274.878175,-74.484866,-34.451424,0,0,0,0,-0.024433,-0.024433,-0.024433,-0.024433,0,0,0,-54.282495,-90.648454,0,57.639082,0,0,9.173545,1,0,0,0,0,0,0,0,0,477,0,0,0
4.77,1441004.807,6143702.31,938961.917,274.872562,-74.515435,-34.45625,0,0,0,0,-0.024433,-0.024433,-0.024433,-0.024433,0,0,0,-54.244864,-90.573815,0,57.594393,0,0,9.166432,1,0,0,0,0,0,0,0,0,478,0,0,0
4.78,1441007.556,6143701.565,938961.5724,274.86708,-74.546007,-34.461087,0,0,0,0,-0.024433,-0.024433,-0.024433,-0.024433,0,0,0,-54.207272,-90.499261,0,57.54964,0,0,9.15931,1,0,0,0,0,0,0,0,0,479,0,0,0
4.79,1441010.305,6143700.819,938961.2277,274.861728,-74.576582,-34.465934,0,0,0,0,-0.024433,-0.024433,-0.024433,-0.024433,0,0,0,-54.16972,-90.424786,0,57.504823,0,0,9.152177,1,0,0,0,0,0,0,0,0,480,0,0,0
4.8,1441013.053,6143700.073,938960.883,274.856507,-74.60716,-34.470792,0,0,0,0,-0.024433,-0.024433,-0.024433,-0.024433,0,0,0,-54.13221,-90.350393,0,57.459941,0,0,9.145034,1,0,0,0,0,0,0,0,0,481,0,0,0
4.81,1441015.802,6143699.326,938960.5382,274.851416,-74.637741,-34.475661,0,0,0,0,-0.024433,-0.024433,-0.024433,-0.024433,0,0,0,-54.094739,-90.276086,0,57.414995,0,0,9.13788,1,0,0,0,0,0,0,0,0,482,0,0,0
4.82,1441018.55,6143698.58,938960.1934,274.846455,-74.668324,-34.480541,0,0,0,0,-0.024433,-0.024433,-0.024433,-0.024433,0,0,0,-54.06051,-90.204786,0,57.369985,0,0,9.130717,1,0,0,0,0,0,0,0,0,483,0,0,0
4.83,1441021.299,6143697.833,938959.8486,274.841625,-74.69891,-34.485431,0,0,0,0,-0.024433,-0.024433,-0.024433,-0.024433,0,0,0,-54.039746,-90.145843,0,57.324912,0,0,9.123543,1,0,0,0,0,0,0,0,0,484,0,0,0
4.84,1441024.047,6143697.085,938959.5037,274.836926,-74.729498,-34.490332,0,0,0,0,-0.024433,-0.024433,-0.024433,-0.024433,0,0,0,-54.018981,-90.086925,0,57.279775,0,0,9.116359,1,0,0,0,0,0,0,0,0,485,0,0,0
4.85,1441026.795,6143696.338,938959.1587,274.832357,-74.760087,-34.495244,0,0,0,0,-0.024433,-0.024433,-0.024433,-0.024433,0,0,0,-53.99822,-90.028041,0,57.234575,0,0,9.109166,1,0,0,0,0,0,0,0,0,486,0,0,0
4.86,1441029.544,6143695.59,938958.8137,274.827918,-74.790678,-34.500166,0,0,0,0,-0.024433,-0.024433,-0.024433,-0.024433,0,0,0,-53.977462,-89.969179,0,57.189311,0,0,9.101962,1,0,0,0,0,0,0,0,0,487,0,0,0
4.87,1441032.292,6143694.842,938958.4687,274.82361,-74.821271,-34.505099,0,0,0,0,-0.024433,-0.024433,-0.024433,-0.024433,0,0,0,-53.956708,-89.910351,0,57.143984,0,0,9.094748,1,0,0,0,0,0,0,0,0,488,0,0,0
4.88,1441035.04,6143694.093,938958.1236,274.819433,-74.851865,-34.510042,0,0,0,0,-0.024433,-0.024433,-0.024433,-0.024433,0,0,0,-53.935953,-89.851548,0,57.098595,0,0,9.087524,1,0,0,0,0,0,0,0,0,489,0,0,0
4.89,1441037.788,6143693.344,938957.7784,274.815385,-74.88246,-34.514995,0,0,0,0,-0.024433,-0.024433,-0.024433,-0.024433,0,0,0,-53.915205,-89.792775,0,57.053143,0,0,9.08029,1,0,0,0,0,0,0,0,0,490,0,0,0
4.9,1441040.536,6143692.595,938957.4332,274.811469,-74.913056,-34.519959,0,0,0,0,-0.024433,-0.024433,-0.024433,-0.024433,0,0,0,-53.894457,-89.734032,0,57.007628,0,0,9.073046,1,0,0,0,0,0,0,0,0,491,0,0,0
4.91,1441043.284,6143691.846,938957.088,274.807682,-74.943652,-34.524933,0,0,0,0,-0.024433,-0.024433,-0.024433,-0.024433,0,0,0,-53.873709,-89.675315,0,56.962051,0,0,9.065792,1,0,0,0,0,0,0,0,0,492,0,0,0
4.92,1441046.032,6143691.096,938956.7427,274.804026,-74.974249,-34.529918,0,0,0,0,-0.024433,-0.024433,-0.024433,-0.024433,0,0,0,-53.852968,-89.616627,0,56.916412,0,0,9.058528,1,0,0,0,0,0,0,0,0,493,0,0,0
4.93,1441048.78,6143690.346,938956.3973,274.800501,-75.004846,-34.534913,0,0,0,0,-0.024433,-0.024433,-0.024433,-0.024433,0,0,0,-53.832229,-89.557969,0,56.870711,0,0,9.051255,1,0,0,0,0,0,0,0,0,494,0,0,0
4.94,1441051.528,6143689.596,938956.0519,274.797106,-75.035443,-34.539918,0,0,0,0,-0.024433,-0.024433,-0.024433,-0.024433,0,0,0,-53.811491,-89.499337,0,56.824948,0,0,9.043971,1,0,0,0,0,0,0,0,0,495,0,0,0
4.95,1441054.276,6143688.845,938955.7065,274.793841,-75.06604,-34.544934,0,0,0,0,-0.024433,-0.024433,-0.024433,-0.024433,0,0,0,-53.790756,-89.440734,0,56.779124,0,0,9.036678,1,0,0,0,0,0,0,0,0,496,0,0,0
4.96,1441057.024,6143688.094,938955.361,274.790707,-75.096637,-34.549959,0,0,0,0,-0.024433,-0.024433,-0.024433,-0.024433,0,0,0,-53.770025,-89.382162,0,56.733238,0,0,9.029375,1,0,0,0,0,0,0,0,0,497,0,0,0
4.97,1441059.772,6143687.343,938955.0154,274.787703,-75.127233,-34.554995,0,0,0,0,-0.024433,-0.024433,-0.024433,-0.024433,0,0,0,-53.749296,-89.323618,0,56.68729,0,0,9.022062,1,0,0,0,0,0,0,0,0,498,0,0,0
4.98,1441062.52,6143686.591,938954.6698,274.784829,-75.157828,-34.560041,0,0,0,0,-0.024433,-0.024433,-0.024433,-0.024433,0,0,0,-53.728571,-89.265101,0,56.641282,0,0,9.01474,1,0,0,0,0,0,0,0,0,499,0,0,0
4.99,1441065.268,6143685.839,938954.3242,274.782086,-75.188422,-34.565097,0,0,0,0,-0.024433,-0.024433,-0.024433,-0.024433,0,0,0,-53.707849,-89.206617,0,56.595213,0,0,9.007408,1,0,0,0,0,0,0,0,0,500,0,0,0
5,1441068.016,6143685.087,938953.9785,274.779473,-75.219015,-34.570163,0,0,0,0,-0.024433,-0.024433,-0.024433,-0.024433,0,0,0,-53.687128,-89.148159,0,56.549083,0,0,9.000066,1,0,0,0,0,0,0,0,0,501,0,0,0
5.01,1441070.763,6143684.335,938953.6327,274.776991,-75.249607,-34.575239,0,0,0,0,-0.024433,-0.024433,-0.024433,-0.024433,0,0,0,-53.666412,-89.089731,0,56.502892,0,0,8.992715,1,0,0,0,0,0,0,0,0,502,0,0,0
5.02,1441073.511,6143683.582,938953.2869,274.774638,-75.280197,-34.580325,0,0,0,0,-0.024433,-0.024433,-0.024433,-0.024433,0,0,0,-53.645701,-89.031328,0,56.456641,0,0,8.985353,1,0,0,0,0,0,0,0,0,503,0,0,0
5.03,1441076.259,6143682.829,938952.9411,274.772416,-75.310785,-34.58542,0,0,0,0,-0.024433,-0.024433,-0.024433,-0.024433,0,0,0,-53.624989,-88.972959,0,56.41033,0,0,8.977983,1,0,0,0,0,0,0,0,0,504,0,0,0
5.04,1441079.006,6143682.075,938952.5952,274.770325,-75.341371,-34.590526,0,0,0,0,-0.024433,-0.024433,-0.024433,-0.024433,0,0,0,-53.604283,-88.914619,0,56.363959,0,0,8.970603,1,0,0,0,0,0,0,0,0,505,0,0,0
5.05,1441081.754,6143681.322,938952.2492,274.768363,-75.371955,-34.595642,0,0,0,0,-0.024433,-0.024433,-0.024433,-0.024433,0,0,0,-53.583581,-88.856305,0,56.317528,0,0,8.963213,1,0,0,0,0,0,0,0,0,506,0,0,0
5.06,1441084.502,6143680.568,938951.9032,274.766532,-75.402536,-34.600767,0,0,0,0,-0.024433,-0.024433,-0.024433,-0.024433,0,0,0,-53.562879,-88.798021,0,56.271037,0,0,8.955814,1,0,0,0,0,0,0,0,0,507,0,0,0
5.07,1441087.249,6143679.813,938951.5571,274.764831,-75.433115,-34.605903,0,0,0,0,-0.024433,-0.024433,-0.024433,-0.024433,0,0,0,-53.542183,-88.739767,0,56.224487,0,0,8.948405,1,0,0,0,0,0,0,0,0,508,0,0,0
5.08,1441089.997,6143679.059,938951.211,274.76326,-75.463691,-34.611048,0,0,0,0,-0.024433,-0.024433,-0.024433,-0.024433,0,0,0,-53.521491,-88.681542,0,56.177878,0,0,8.940987,1,0,0,0,0,0,0,0,0,509,0,0,0
5.09,1441092.745,6143678.304,938950.8649,274.76182,-75.494264,-34.616202,0,0,0,0,-0.024433,-0.024433,-0.024433,-0.024433,0,0,0,-53.500799,-88.623346,0,56.131209,0,0,8.933559,1,0,0,0,0,0,0,0,0,510,0,0,0
5.1,1441095.492,6143677.548,938950.5186,274.760509,-75.524834,-34.621367,0,0,0,0,-0.024433,-0.024433,-0.024433,-0.024433,0,0,0,-53.480113,-88.56518,0,56.084481,0,0,8.926122,1,0,0,0,0,0,0,0,0,511,0,0,0
5.11,1441098.24,6143676.793,938950.1724,274.759329,-75.5554,-34.626541,0,0,0,0,-0.024433,-0.024433,-0.024433,-0.024433,0,0,0,-53.459431,-88.507044,0,56.037695,0,0,8.918676,1,0,0,0,0,0,0,0,0,512,0,0,0
5.12,1441100.987,6143676.037,938949.8261,274.758279,-75.585963,-34.631724,0,0,0,0,-0.024433,-0.024433,-0.024433,-0.024433,0,0,0,-53.438752,-88.448937,0,55.99085,0,0,8.911221,1,0,0,0,0,0,0,0,0,513,0,0,0
5.13,1441103.735,6143675.281,938949.4797,274.757358,-75.616521,-34.636918,0,0,0,0,-0.024433,-0.024433,-0.024433,-0.024433,0,0,0,-53.418076,-88.390859,0,55.943947,0,0,8.903756,1,0,0,0,0,0,0,0,0,514,0,0,0
5.14,1441106.483,6143674.524,938949.1333,274.756568,-75.647076,-34.64212,0,0,0,0,-0.024433,-0.024433,-0.024433,-0.024433,0,0,0,-53.397403,-88.332808,0,55.896985,0,0,8.896281,1,0,0,0,0,0,0,0,0,515,0,0,0
5.15,1441109.23,6143673.768,938948.7868,274.755908,-75.677627,-34.647333,0,0,0,0,-0.024433,-0.024433,-0.024433,-0.024433,0,0,0,-53.376737,-88.27479,0,55.849966,0,0,8.888798,1,0,0,0,0,0,0,0,0,516,0,0,0
5.16,1441111.978,6143673.011,938948.4403,274.755378,-75.708173,-34.652554,0,0,0,0,-0.024433,-0.024433,-0.024433,-0.024433,0,0,0,-53.356071,-88.216801,0,55.802888,0,0,8.881305,1,0,0,0,0,0,0,0,0,517,0,0,0
5.17,1441114.725,6143672.253,938948.0937,274.754977,-75.738714,-34.657785,0,0,0,0,-0.024433,-0.024433,-0.024433,-0.024433,0,0,0,-53.335412,-88.158838,0,55.755753,0,0,8.873804,1,0,0,0,0,0,0,0,0,518,0,0,0
5.18,1441117.473,6143671.495,938947.7471,274.754707,-75.76925,-34.663026,0,0,0,0,-0.024433,-0.024433,-0.024433,-0.024433,0,0,0,-53.314756,-88.100908,0,55.70856,0,0,8.866293,1,0,0,0,0,0,0,0,0,519,0,0,0
5.19,1441120.22,6143670.737,938947.4004,274.754567,-75.799782,-34.668276,0,0,0,0,-0.024433,-0.024433,-0.024433,-0.024433,0,0,0,-53.294103,-88.043008,0,55.66131,0,0,8.858773,1,0,0,0,0,0,0,0,0,520,0,0,0
5.2,1441122.968,6143669.979,938947.0536,274.754556,-75.830308,-34.673535,0,0,0,0,-0.024433,-0.024433,-0.024433,-0.024433,0,0,0,-53.273456,-87.985137,0,55.614003,0,0,8.851243,1,0,0,0,0,0,0,0,0,521,0,0,0
5.21,1441125.715,6143669.221,938946.7069,274.754675,-75.860828,-34.678803,0,0,0,0,-0.024433,-0.024433,-0.024433,-0.024433,0,0,0,-53.25281,-87.927296,0,55.566639,0,0,8.843705,1,0,0,0,0,0,0,0,0,522,0,0,0
5.22,1441128.463,6143668.462,938946.36,274.754924,-75.891343,-34.684081,0,0,0,0,-0.024433,-0.024433,-0.024433,-0.024433,0,0,0,-53.23217,-87.869484,0,55.519218,0,0,8.836158,1,0,0,0,0,0,0,0,0,523,0,0,0
5.23,1441131.211,6143667.702,938946.0131,274.755303,-75.921852,-34.689367,0,0,0,0,-0.024433,-0.024433,-0.024433,-0.024433,0,0,0,-53.211534,-87.811702,0,55.471741,0,0,8.828602,1,0,0,0,0,0,0,0,0,524,0,0,0
5.24,1441133.958,6143666.943,938945.6662,274.755811,-75.952356,-34.694663,0,0,0,0,-0.024433,-0.024433,-0.024433,-0.024433,0,0,0,-53.190901,-87.75395,0,55.424207,0,0,8.821037,1,0,0,0,0,0,0,0,0,525,0,0,0
5.25,1441136.706,6143666.183,938945.3192,274.756449,-75.982852,-34.699968,0,0,0,0,-0.024433,-0.024433,-0.024433,-0.024433,0,0,0,-53.170274,-87.696227,0,55.376617,0,0,8.813462,1,0,0,0,0,0,0,0,0,526,0,0,0
5.26,1441139.453,6143665.423,938944.9721,274.757217,-76.013342,-34.705283,0,0,0,0,-0.024433,-0.024433,-0.024433,-0.024433,0,0,0,-53.149651,-87.638536,0,55.328971,0,0,8.805879,1,0,0,0,0,0,0,0,0,527,0,0,0
5.27,1441142.201,6143664.662,938944.625,274.758114,-76.043826,-34.710606,0,0,0,0,-0.024433,-0.024433,-0.024433,-0.024433,0,0,0,-53.129031,-87.580872,0,55.281269,0,0,8.798287,1,0,0,0,0,0,0,0,0,528,0,0,0
5.28,1441144.948,6143663.902,938944.2779,274.759141,-76.074303,-34.715938,0,0,0,0,-0.024433,-0.024433,-0.024433,-0.024433,0,0,0,-53.108414,-87.523241,0,55.233511,0,0,8.790686,1,0,0,0,0,0,0,0,0,529,0,0,0
5.29,1441147.696,6143663.141,938943.9306,274.760298,-76.104772,-34.721279,0,0,0,0,-0.024433,-0.024433,-0.024433,-0.024433,0,0,0,-53.087804,-87.465639,0,55.185698,0,0,8.783077,1,0,0,0,0,0,0,0,0,530,0,0,0
5.3,1441150.444,6143662.379,938943.5834,274.761584,-76.135235,-34.726629,0,0,0,0,-0.024433,-0.024433,-0.024433,-0.024433,0,0,0,-53.067197,-87.408067,0,55.13783,0,0,8.775458,1,0,0,0,0,0,0,0,0,531,0,0,0
5.31,1441153.191,6143661.618,938943.2361,274.762999,-76.16569,-34.731988,0,0,0,0,-0.024433,-0.024433,-0.024433,-0.024433,0,0,0,-53.046596,-87.350524,0,55.089906,0,0,8.767831,1,0,0,0,0,0,0,0,0,532,0,0,0
5.32,1441155.939,6143660.856,938942.8887,274.764544,-76.196137,-34.737356,0,0,0,0,-0.024433,-0.024433,-0.024433,-0.024433,0,0,0,-53.025999,-87.293011,0,55.041928,0,0,8.760195,1,0,0,0,0,0,0,0,0,533,0,0,0
5.33,1441158.687,6143660.093,938942.5413,274.766218,-76.226576,-34.742733,0,0,0,0,-0.024433,-0.024433,-0.024433,-0.024433,0,0,0,-53.005405,-87.235531,0,54.993895,0,0,8.75255,1,0,0,0,0,0,0,0,0,534,0,0,0
5.34,1441161.434,6143659.331,938942.1938,274.768021,-76.257007,-34.748118,0,0,0,0,-0.024433,-0.024433,-0.024433,-0.024433,0,0,0,-52.984818,-87.178077,0,54.945807,0,0,8.744897,1,0,0,0,0,0,0,0,0,535,0,0,0
5.35,1441164.182,6143658.568,938941.8462,274.769954,-76.28743,-34.753512,0,0,0,0,-0.024433,-0.024433,-0.024433,-0.024433,0,0,0,-52.964234,-87.120656,0,54.897665,0,0,8.737235,1,0,0,0,0,0,0,0,0,536,0,0,0
5.36,1441166.93,6143657.805,938941.4987,274.772016,-76.317845,-34.758915,0,0,0,0,-0.024433,-0.024433,-0.024433,-0.024433,0,0,0,-52.943653,-87.063264,0,54.849468,0,0,8.729564,1,0,0,0,0,0,0,0,0,537,0,0,0
5.37,1441169.677,6143657.041,938941.151,274.774207,-76.34825,-34.764327,0,0,0,0,-0.024433,-0.024433,-0.024433,-0.024433,0,0,0,-52.923079,-87.005905,0,54.801218,0,0,8.721885,1,0,0,0,0,0,0,0,0,538,0,0,0
5.38,1441172.425,6143656.278,938940.8033,274.776528,-76.378647,-34.769747,0,0,0,0,-0.024433,-0.024433,-0.024433,-0.024433,0,0,0,-52.902508,-86.948572,0,54.752914,0,0,8.714197,1,0,0,0,0,0,0,0,0,539,0,0,0
5.39,1441175.173,6143655.513,938940.4556,274.778977,-76.409035,-34.775175,0,0,0,0,-0.024433,-0.024433,-0.024433,-0.024433,0,0,0,-52.881944,-86.891272,0,54.704556,0,0,8.7065,1,0,0,0,0,0,0,0,0,540,0,0,0
5.4,1441177.921,6143654.749,938940.1078,274.781556,-76.439414,-34.780613,0,0,0,0,-0.024433,-0.024433,-0.024433,-0.024433,0,0,0,-52.861383,-86.834002,0,54.656145,0,0,8.698796,1,0,0,0,0,0,0,0,0,541,0,0,0
5.41,1441180.669,6143653.984,938939.7599,274.784263,-76.469783,-34.786058,0,0,0,0,-0.024433,-0.024433,-0.024433,-0.024433,0,0,0,-52.840828,-86.776761,0,54.60768,0,0,8.691082,1,0,0,0,0,0,0,0,0,542,0,0,0
5.42,1441183.417,6143653.219,938939.412,274.787099,-76.500142,-34.791513,0,0,0,0,-0.024433,-0.024433,-0.024433,-0.024433,0,0,0,-52.820277,-86.719553,0,54.559162,0,0,8.68336,1,0,0,0,0,0,0,0,0,543,0,0,0
5.43,1441186.164,6143652.454,938939.064,274.790064,-76.530492,-34.796975,0,0,0,0,-0.024433,-0.024433,-0.024433,-0.024433,0,0,0,-52.799733,-86.662375,0,54.510592,0,0,8.67563,1,0,0,0,0,0,0,0,0,544,0,0,0
5.44,1441188.912,6143651.688,938938.716,274.793159,-76.560832,-34.802447,0,0,0,0,-0.024433,-0.024433,-0.024433,-0.024433,0,0,0,-52.779191,-86.605226,0,54.461969,0,0,8.667892,1,0,0,0,0,0,0,0,0,545,0,0,0
5.45,1441191.66,6143650.923,938938.3679,274.796381,-76.591161,-34.807926,0,0,0,0,-0.024433,-0.024433,-0.024433,-0.024433,0,0,0,-52.758657,-86.548106,0,54.413293,0,0,8.660145,1,0,0,0,0,0,0,0,0,546,0,0,0
5.46,1441194.408,6143650.156,938938.0198,274.799733,-76.62148,-34.813414,0,0,0,0,-0.024433,-0.024433,-0.024433,-0.024433,0,0,0,-52.738125,-86.49102,0,54.364565,0,0,8.652389,1,0,0,0,0,0,0,0,0,547,0,0,0
5.47,1441197.156,6143649.39,938937.6716,274.803213,-76.651788,-34.81891,0,0,0,0,-0.024433,-0.024433,-0.024433,-0.024433,0,0,0,-52.7176,-86.433963,0,54.315785,0,0,8.644626,1,0,0,0,0,0,0,0,0,548,0,0,0
5.48,1441199.904,6143648.623,938937.3233,274.806822,-76.682085,-34.824414,0,0,0,0,-0.024433,-0.024433,-0.024433,-0.024433,0,0,0,-52.697078,-86.376938,0,54.266953,0,0,8.636854,1,0,0,0,0,0,0,0,0,549,0,0,0
5.49,1441202.653,6143647.856,938936.975,274.81056,-76.712372,-34.829927,0,0,0,0,-0.024433,-0.024433,-0.024433,-0.024433,0,0,0,-52.676563,-86.319944,0,54.218069,0,0,8.629074,1,0,0,0,0,0,0,0,0,550,0,0,0
5.5,1441205.401,6143647.088,938936.6267,274.814425,-76.742647,-34.835448,0,0,0,0,-0.024433,-0.024433,-0.024433,-0.024433,0,0,0,-52.656055,-86.262978,0,54.169133,0,0,8.621285,1,0,0,0,0,0,0,0,0,551,0,0,0
5.51,1441208.149,6143646.321,938936.2783,274.81842,-76.77291,-34.840976,0,0,0,0,-0.024433,-0.024433,-0.024433,-0.024433,0,0,0,-52.63555,-86.206043,0,54.120146,0,0,8.613489,1,0,0,0,0,0,0,0,0,552,0,0,0
5.52,1441210.897,6143645.553,938935.9298,274.822542,-76.803162,-34.846513,0,0,0,0,-0.024433,-0.024433,-0.024433,-0.024433,0,0,0,-52.615051,-86.14914,0,54.071108,0,0,8.605684,1,0,0,0,0,0,0,0,0,553,0,0,0
5.53,1441213.645,6143644.784,938935.5813,274.826794,-76.833402,-34.852058,0,0,0,0,-0.024433,-0.024433,-0.024433,-0.024433,0,0,0,-52.594555,-86.092267,0,54.022019,0,0,8.597871,1,0,0,0,0,0,0,0,0,554,0,0,0
5.54,1441216.394,6143644.016,938935.2327,274.831173,-76.863631,-34.857611,0,0,0,0,-0.024433,-0.024433,-0.024433,-0.024433,0,0,0,-52.574067,-86.035426,0,53.972879,0,0,8.59005,1,0,0,0,0,0,0,0,0,555,0,0,0
5.55,1441219.142,6143643.247,938934.8841,274.835681,-76.893847,-34.863172,0,0,0,0,-0.024433,-0.024433,-0.024433,-0.024433,0,0,0,-52.553584,-85.978615,0,53.923689,0,0,8.582222,1,0,0,0,0,0,0,0,0,556,0,0,0
5.56,1441221.89,6143642.478,938934.5354,274.840316,-76.92405,-34.868741,0,0,0,0,-0.024433,-0.024433,-0.024433,-0.024433,0,0,0,-52.533105,-85.921833,0,53.874448,0,0,8.574385,1,0,0,0,0,0,0,0,0,557,0,0,0
5.57,1441224.639,6143641.708,938934.1867,274.84508,-76.954241,-34.874318,0,0,0,0,-0.024433,-0.024433,-0.024433,-0.024433,0,0,0,-52.512633,-85.865085,0,53.825157,0,0,8.56654,1,0,0,0,0,0,0,0,0,558,0,0,0
5.58,1441227.387,6143640.938,938933.8379,274.849972,-76.984419,-34.879903,0,0,0,0,-0.024433,-0.024433,-0.024433,-0.024433,0,0,0,-52.492167,-85.808366,0,53.775815,0,0,8.558687,1,0,0,0,0,0,0,0,0,559,0,0,0
5.59,1441230.136,6143640.168,938933.489,274.854991,-77.014584,-34.885495,0,0,0,0,-0.024433,-0.024433,-0.024433,-0.024433,0,0,0,-52.471704,-85.751679,0,53.726424,0,0,8.550826,1,0,0,0,0,0,0,0,0,560,0,0,0
5.6,1441232.885,6143639.398,938933.1401,274.860139,-77.044736,-34.891095,0,0,0,0,-0.024433,-0.024433,-0.024433,-0.024433,0,0,0,-52.451248,-85.695022,0,53.676983,0,0,8.542957,1,0,0,0,0,0,0,0,0,561,0,0,0
5.61,1441235.633,6143638.627,938932.7911,274.865414,-77.074875,-34.896703,0,0,0,0,-0.024433,-0.024433,-0.024433,-0.024433,0,0,0,-52.430799,-85.638398,0,53.627493,0,0,8.535081,1,0,0,0,0,0,0,0,0,562,0,0,0
5.62,1441238.382,6143637.856,938932.4421,274.870817,-77.105,-34.902319,0,0,0,0,-0.024433,-0.024433,-0.024433,-0.024433,0,0,0,-52.410356,-85.581804,0,53.577954,0,0,8.527196,1,0,0,0,0,0,0,0,0,563,0,0,0
5.63,1441241.131,6143637.084,938932.093,274.876348,-77.135111,-34.907943,0,0,0,0,-0.024433,-0.024433,-0.024433,-0.024433,0,0,0,-52.389916,-85.525239,0,53.528365,0,0,8.519304,1,0,0,0,0,0,0,0,0,564,0,0,0
5.64,1441243.879,6143636.313,938931.7439,274.882006,-77.165208,-34.913574,0,0,0,0,-0.024433,-0.024433,-0.024433,-0.024433,0,0,0,-52.369483,-85.468707,0,53.478727,0,0,8.511404,1,0,0,0,0,0,0,0,0,565,0,0,0
5.65,1441246.628,6143635.541,938931.3947,274.887792,-77.195291,-34.919212,0,0,0,0,-0.024433,-0.024433,-0.024433,-0.024433,0,0,0,-52.349057,-85.412207,0,53.429041,0,0,8.503496,1,0,0,0,0,0,0,0,0,566,0,0,0
5.66,1441249.377,6143634.769,938931.0454,274.893706,-77.22536,-34.924858,0,0,0,0,-0.024433,-0.024433,-0.024433,-0.024433,0,0,0,-52.328634,-85.355734,0,53.379306,0,0,8.49558,1,0,0,0,0,0,0,0,0,567,0,0,0
5.67,1441252.126,6143633.996,938930.6961,274.899747,-77.255414,-34.930512,0,0,0,0,-0.024433,-0.024433,-0.024433,-0.024433,0,0,0,-52.30822,-85.299297,0,53.329523,0,0,8.487657,1,0,0,0,0,0,0,0,0,568,0,0,0
5.68,1441254.875,6143633.223,938930.3468,274.905915,-77.285454,-34.936173,0,0,0,0,-0.024433,-0.024433,-0.024433,-0.024433,0,0,0,-52.28781,-85.24289,0,53.279691,0,0,8.479726,1,0,0,0,0,0,0,0,0,569,0,0,0
5.69,1441257.624,6143632.45,938929.9974,274.912211,-77.315479,-34.941842,0,0,0,0,-0.024433,-0.024433,-0.024433,-0.024433,0,0,0,-52.267407,-85.186512,0,53.229812,0,0,8.471788,1,0,0,0,0,0,0,0,0,570,0,0,0
5.7,1441260.374,6143631.677,938929.6479,274.918633,-77.345488,-34.947518,0,0,0,0,-0.024433,-0.024433,-0.024433,-0.024433,0,0,0,-52.247006,-85.130167,0,53.179885,0,0,8.463842,1,0,0,0,0,0,0,0,0,571,0,0,0
5.71,1441263.123,6143630.903,938929.2984,274.925183,-77.375482,-34.953201,0,0,0,0,-0.024433,-0.024433,-0.024433,-0.024433,0,0,0,-52.226616,-85.073854,0,53.12991,0,0,8.455888,1,0,0,0,0,0,0,0,0,572,0,0,0
5.72,1441265.872,6143630.129,938928.9488,274.93186,-77.405461,-34.958892,0,0,0,0,-0.024433,-0.024433,-0.024433,-0.024433,0,0,0,-52.206229,-85.017568,0,53.079888,0,0,8.447927,1,0,0,0,0,0,0,0,0,573,0,0,0
5.73,1441268.622,6143629.354,938928.5991,274.938664,-77.435424,-34.96459,0,0,0,0,-0.024433,-0.024433,-0.024433,-0.024433,0,0,0,-52.185851,-84.961318,0,53.029819,0,0,8.439958,1,0,0,0,0,0,0,0,0,574,0,0,0
5.74,1441271.371,6143628.58,938928.2494,274.945594,-77.465371,-34.970295,0,0,0,0,-0.024433,-0.024433,-0.024433,-0.024433,0,0,0,-52.165477,-84.905098,0,52.979703,0,0,8.431982,1,0,0,0,0,0,0,0,0,575,0,0,0
5.75,1441274.121,6143627.805,938927.8997,274.952652,-77.495302,-34.976008,0,0,0,0,-0.024433,-0.024433,-0.024433,-0.024433,0,0,0,-52.14511,-84.84891,0,52.92954,0,0,8.423998,1,0,0,0,0,0,0,0,0,576,0,0,0
5.76,1441276.87,6143627.03,938927.5498,274.959836,-77.525217,-34.981727,0,0,0,0,-0.024433,-0.024433,-0.024433,-0.024433,0,0,0,-52.124749,-84.792752,0,52.87933,0,0,8.416007,1,0,0,0,0,0,0,0,0,577,0,0,0
5.77,1441279.62,6143626.254,938927.2,274.967146,-77.555116,-34.987454,0,0,0,0,-0.024433,-0.024433,-0.024433,-0.024433,0,0,0,-52.104391,-84.736627,0,52.829074,0,0,8.408008,1,0,0,0,0,0,0,0,0,578,0,0,0
5.78,1441282.37,6143625.478,938926.85,274.974584,-77.584997,-34.993188,0,0,0,0,-0.024433,-0.024433,-0.024433,-0.024433,0,0,0,-52.084044,-84.680531,0,52.778772,0,0,8.400002,1,0,0,0,0,0,0,0,0,579,0,0,0
5.79,1441285.119,6143624.702,938926.5,274.982147,-77.614862,-34.998929,0,0,0,0,-0.024433,-0.024433,-0.024433,-0.024433,0,0,0,-52.063702,-84.624468,0,52.728424,0,0,8.391989,1,0,0,0,0,0,0,0,0,580,0,0,0
5.8,1441287.869,6143623.926,938926.15,274.989837,-77.64471,-35.004676,0,0,0,0,-0.024433,-0.024433,-0.024433,-0.024433,0,0,0,-52.043365,-84.568434,0,52.67803,0,0,8.383969,1,0,0,0,0,0,0,0,0,581,0,0,0
5.81,1441290.619,6143623.149,938925.7999,274.997654,-77.674541,-35.010431,0,0,0,0,-0.024433,-0.024433,-0.024433,-0.024433,0,0,0,-52.023036,-84.512434,0,52.62759,0,0,8.375941,1,0,0,0,0,0,0,0,0,582,0,0,0
5.82,1441293.369,6143622.372,938925.4497,275.005596,-77.704354,-35.016193,0,0,0,0,-0.024433,-0.024433,-0.024433,-0.024433,0,0,0,-52.002712,-84.456466,0,52.577105,0,0,8.367906,1,0,0,0,0,0,0,0,0,583,0,0,0
5.83,1441296.119,6143621.594,938925.0995,275.013665,-77.73415,-35.021962,0,0,0,0,-0.024433,-0.024433,-0.024433,-0.024433,0,0,0,-51.982393,-84.400528,0,52.526574,0,0,8.359864,1,0,0,0,0,0,0,0,0,584,0,0,0
5.84,1441298.87,6143620.817,938924.7492,275.02186,-77.763928,-35.027737,0,0,0,0,-0.024433,-0.024433,-0.024433,-0.024433,0,0,0,-51.962085,-84.344622,0,52.475999,0,0,8.351815,1,0,0,0,0,0,0,0,0,585,0,0,0
5.85,1441301.62,6143620.039,938924.3989,275.03018,-77.793688,-35.033519,0,0,0,0,-0.024433,-0.024433,-0.024433,-0.024433,0,0,0,-51.94178,-84.288749,0,52.425379,0,0,8.343758,1,0,0,0,0,0,0,0,0,586,0,0,0
5.86,1441304.37,6143619.261,938924.0485,275.038627,-77.82343,-35.039309,0,0,0,0,-0.024433,-0.024433,-0.024433,-0.024433,0,0,0,-51.921481,-84.232906,0,52.374714,0,0,8.335695,1,0,0,0,0,0,0,0,0,587,0,0,0
5.87,1441307.121,6143618.482,938923.6981,275.0472,-77.853154,-35.045104,0,0,0,0,-0.024433,-0.024433,-0.024433,-0.024433,0,0,0,-51.901189,-84.177096,0,52.324004,0,0,8.327624,1,0,0,0,0,0,0,0,0,588,0,0,0
5.88,1441309.871,6143617.703,938923.3475,275.055898,-77.882859,-35.050907,0,0,0,0,-0.024433,-0.024433,-0.024433,-0.024433,0,0,0,-51.880907,-84.121315,0,52.27325,0,0,8.319546,1,0,0,0,0,0,0,0,0,589,0,0,0
5.89,1441312.622,6143616.924,938922.997,275.064722,-77.912546,-35.056716,0,0,0,0,-0.024433,-0.024433,-0.024433,-0.024433,0,0,0,-51.860628,-84.065567,0,52.222453,0,0,8.311462,1,0,0,0,0,0,0,0,0,590,0,0,0
