missiontime,Pos_X,Pos_Y,Pos_Z,Vel_X,Vel_Y,Vel_Z,Acc_X,Acc_Y,Acc_Z,Gyro_p, Gyro_q, Gyro_r,bmx,bmy,bmz,deltaVx,deltaVy,deltaVz,deltaThetaX,deltaThetaY,deltaThetaZ
0,1439665.141,6144028.09,939123.406,291.0236749,-63.72068517,-33.86636806,0,0,0,69.115038,0,0,381.012754,146.396251,-12.541436,0,0,0,0.69115,0,0
0.01,1439668.051,6144027.452,939123.0673,290.951652,-63.79388021,-33.87331623,-84.00102303,-145.0022258,0,69.114984,0,0,381.012502,120.793399,83.652373,-0.840009869,-1.450023012,0,0.69115,0,0
0.02,1439670.959,6144026.813,939122.7285,290.8821667,-63.85748787,-33.87881198,-83.89078352,-144.8153524,0,69.11482,0,0,381.01225,39.750631,141.450583,-0.838907507,-1.448152933,0,0.691148,0,0
0.03,1439673.867,6144026.174,939122.3897,290.8151773,-63.9115012,-33.88285081,-83.78079008,-144.6288891,0,69.114548,0,0,381.011999,-59.534762,134.326497,-0.837808426,-1.446289416,0,0.691145,0,0
0.04,1439676.775,6144025.535,939122.0508,290.7506429,-63.95591348,-33.88542835,-83.67104598,-144.442836,0,69.114166,0,0,381.011748,-131.493752,65.551543,-0.836709344,-1.44442918,0,0.691142,0,0
0.05,1439679.682,6144024.895,939121.7119,290.6885234,-63.99071826,-33.88654034,-83.56154795,-144.2571864,0,69.113676,0,0,381.011498,-143.100826,-33.307372,-0.835616825,-1.442572225,0,0.691137,0,0
0.06,1439682.588,6144024.255,939121.3731,290.62878,-64.01590934,-33.88618266,-83.45229598,-144.0719403,0,69.113076,0,0,381.011247,-89.030985,-116.877404,-0.834524305,-1.44071855,0,0.691131,0,0
0.07,1439685.494,6144023.614,939121.0342,290.5713744,-64.03148072,-33.88435127,-83.34329007,-143.8870978,0,69.112368,0,0,381.010997,5.897951,-146.804886,-0.833431785,-1.438871437,0,0.691124,0,0
0.08,1439688.399,6144022.974,939120.6954,290.5158889,-64.03909907,-33.88130048,-83.23452694,-143.7026588,0,69.11155,0,0,381.010748,98.117595,-109.35728,-0.832345827,-1.437027605,0,0.691116,0,0
0.09,1439691.304,6144022.334,939120.3566,290.4604631,-64.04680076,-33.87826876,-83.12600988,-143.5186234,0,69.110624,0,0,381.010499,145.30581,-21.723623,-0.831259869,-1.435187054,0,0.691106,0,0
0.1,1439694.208,6144021.693,939120.0179,290.4050973,-64.0545857,-33.87525611,-83.0177356,-143.3349849,0,69.109588,0,0,381.01025,125.809457,75.876822,-0.830177192,-1.433349783,0,0.691096,0,0
0.11,1439697.111,6144021.052,939119.6792,290.3497919,-64.06245383,-33.87226252,-82.9097041,-143.1517467,0,69.108444,0,0,381.010001,48.579296,138.654178,-0.829097796,-1.431519075,0,0.691084,0,0
0.12,1439700.014,6144020.412,939119.3405,290.294547,-64.07040507,-33.86928803,-82.80191538,-142.9689055,0,69.10719,0,0,381.009753,-50.940947,137.802637,-0.828018399,-1.429688366,0,0.691072,0,0
0.13,1439702.917,6144019.771,939119.0018,290.2393631,-64.07843936,-33.86633264,-82.69436616,-142.7864613,0,69.105828,0,0,381.009505,-127.082459,73.717118,-0.826942284,-1.427864219,0,0.691058,0,0
0.14,1439705.818,6144019.13,939118.6632,290.1842404,-64.08655659,-33.86339635,-82.58705645,-142.6044107,0,69.104356,0,0,381.009257,-144.908728,-24.191808,-0.825869449,-1.426043353,0,0.691044,0,0
0.15,1439708.72,6144018.489,939118.3246,290.1291791,-64.09475669,-33.86047917,-82.47998952,-142.4227572,0,69.102776,0,0,381.00901,-96.244681,-110.997131,-0.824799895,-1.424229048,0,0.691028,0,0
0.16,1439711.62,6144017.848,939117.986,290.0741794,-64.10303957,-33.85758111,-82.3731588,-142.2414941,0,69.101087,0,0,381.008763,-3.423572,-146.871711,-0.823730341,-1.422414744,0,0.691011,0,0
0.17,1439714.521,6144017.207,939117.6474,290.0192417,-64.11140515,-33.85470216,-82.26656759,-142.0606246,0,69.099288,0,0,381.008516,90.964729,-115.360555,-0.822664068,-1.420607001,0,0.690993,0,0
0.18,1439717.42,6144016.566,939117.3089,289.9643661,-64.11985333,-33.85184234,-82.1602126,-141.8801456,0,69.097381,0,0,381.00827,143.616972,-30.926106,-0.821601076,-1.418802539,0,0.690974,0,0
0.19,1439720.319,6144015.924,939116.9704,289.909553,-64.12838404,-33.84900164,-82.05409711,-141.700057,0,69.095365,0,0,381.008024,130.382637,67.692289,-0.820541365,-1.417001358,0,0.690954,0,0
0.2,1439723.218,6144015.283,939116.632,289.8548025,-64.13699718,-33.84618008,-81.94821785,-141.5203556,0,69.09324,0,0,381.007778,57.338987,135.254347,-0.819481654,-1.415203457,0,0.690932,0,0
0.21,1439726.116,6144014.642,939116.2935,289.800115,-64.14569266,-33.84337766,-81.84257152,-141.3410413,0,69.091006,0,0,381.007533,-42.002838,140.772439,-0.818425223,-1.413408838,0,0.69091,0,0
0.22,1439729.013,6144014,939115.9551,289.7454908,-64.15447043,-33.8405944,-81.73716469,-141.1621108,0,69.088663,0,0,381.007288,-122.074748,81.722053,-0.817372073,-1.41162078,0,0.690887,0,0
0.23,1439731.91,6144013.358,939115.6167,289.6909302,-64.1633304,-33.8378303,-81.63198752,-140.9835708,0,69.086211,0,0,381.007043,-146.154435,-14.806745,-0.816318924,-1.409836003,0,0.690862,0,0
0.24,1439734.807,6144012.717,939115.2784,289.6364335,-64.17227248,-33.83508536,-81.52704657,-140.8054113,0,69.08365,0,0,381.006799,-103.205004,-104.540454,-0.815269055,-1.408054507,0,0.690837,0,0
0.25,1439737.702,6144012.075,939114.9401,289.5820008,-64.18129658,-33.8323596,-81.42233856,-140.6276357,0,69.080981,0,0,381.006554,-12.930071,-146.329811,-0.814222467,-1.406276292,0,0.69081,0,0
0.26,1439740.598,6144011.433,939114.6018,289.5276324,-64.1904026,-33.82965302,-81.31786021,-140.4502407,0,69.078202,0,0,381.006311,83.269378,-121.018313,-0.81317916,-1.404501357,0,0.690782,0,0
0.27,1439743.492,6144010.791,939114.2635,289.4733286,-64.19959046,-33.82696561,-81.2136148,-140.2732263,0,69.075315,0,0,381.006067,141.284083,-40.220031,-0.812135853,-1.402732985,0,0.690753,0,0
0.28,1439746.387,6144010.149,939113.9253,289.4190897,-64.20886006,-33.82429739,-81.10960233,-140.0965924,0,69.072319,0,0,381.005824,134.520753,59.013825,-0.811095826,-1.400964612,0,0.690723,0,0
0.29,1439749.28,6144009.507,939113.587,289.3649158,-64.21821131,-33.82164836,-81.00581952,-139.9203358,0,69.069214,0,0,381.005581,66.088687,131.188308,-0.810059081,-1.399202801,0,0.690692,0,0
0.3,1439752.173,6144008.864,939113.2489,289.3108073,-64.22764413,-33.81901852,-80.90226309,-139.7444599,0,69.066,0,0,381.005339,-32.634428,143.222564,-0.809022336,-1.39744427,0,0.69066,0,0
0.31,1439755.066,6144008.222,939112.9107,289.2567643,-64.23715841,-33.81640787,-80.79893959,-139.5689546,0,69.062677,0,0,381.005097,-116.393794,89.609239,-0.807988871,-1.395689021,0,0.690627,0,0
0.32,1439757.958,6144007.58,939112.5726,289.2027873,-64.24675409,-33.81381644,-80.69584248,-139.3938299,0,69.059245,0,0,381.004855,-146.803431,-5.070154,-0.806958687,-1.393937052,0,0.690592,0,0
0.33,1439760.849,6144006.937,939112.2344,289.1488765,-64.25643107,-33.81124422,-80.59297174,-139.219076,0,69.055705,0,0,381.004613,-109.935577,-97.420458,-0.805928503,-1.392191646,0,0.690557,0,0
0.34,1439763.74,6144006.294,939111.8964,289.0950322,-64.26618927,-33.80869122,-80.49033066,-139.0446961,0,69.052056,0,0,381.004372,-22.694618,-145.124616,-0.804904881,-1.390446239,0,0.690521,0,0
0.35,1439766.631,6144005.652,939111.5583,289.0412545,-64.27602858,-33.80615744,-80.38791596,-138.8706869,0,69.048298,0,0,381.004131,74.93918,-126.332666,-0.803877978,-1.388707394,0,0.690483,0,0
0.36,1439769.521,6144005.009,939111.2203,288.9875438,-64.28594891,-33.80364288,-80.28572435,-138.6970484,0,69.044432,0,0,381.003891,138.234773,-49.664821,-0.802857637,-1.386971829,0,0.690444,0,0
0.37,1439772.41,6144004.366,939110.8822,288.9339003,-64.29595016,-33.80114756,-80.18375913,-138.5237807,0,69.040456,0,0,381.00365,138.203236,49.748732,-0.801837296,-1.385236265,0,0.690405,0,0
0.38,1439775.299,6144003.723,939110.5443,288.8803242,-64.30603223,-33.79867146,-80.082017,-138.3508804,0,69.036372,0,0,381.003411,74.870027,126.369197,-0.800820236,-1.383507262,0,0.690364,0,0
0.39,1439778.187,6144003.08,939110.2063,288.8268158,-64.31619504,-33.7962146,-79.98050125,-138.1783509,0,69.032179,0,0,381.003171,-22.748042,145.109771,-0.799806456,-1.381784821,0,0.690322,0,0
0.4,1439781.075,6144002.436,939109.8684,288.7733753,-64.32643848,-33.79377698,-79.87920859,-138.0061855,0,69.027878,0,0,381.002932,-109.942478,97.399154,-0.798792676,-1.38006238,0,0.690279,0,0
0.41,1439783.962,6144001.793,939109.5304,288.720003,-64.33676245,-33.79135859,-79.77813576,-137.8343843,0,69.023468,0,0,381.002693,-146.79103,5.095292,-0.797782178,-1.37834322,0,0.690235,0,0
0.42,1439786.849,6144001.15,939109.1926,288.6666992,-64.34716688,-33.78895946,-79.67728601,-137.6629506,0,69.018949,0,0,381.002454,-116.433334,-89.534755,-0.796771679,-1.376630621,0,0.690189,0,0
0.43,1439789.735,6144000.506,939108.8547,288.6134643,-64.35765168,-33.78657958,-79.57665937,-137.4918778,0,69.014322,0,0,381.002216,-32.779153,-143.172434,-0.795767742,-1.374918023,0,0.690143,0,0
0.44,1439792.62,6143999.862,939108.5168,288.5602983,-64.36821673,-33.78421896,-79.47624926,-137.3211691,0,69.009586,0,0,381.001978,65.871995,-131.275758,-0.794763805,-1.373211986,0,0.690096,0,0
0.45,1439795.506,6143999.218,939108.179,288.5072017,-64.37886195,-33.7818776,-79.37606225,-137.1508213,0,69.004741,0,0,381.00174,134.369925,-59.302559,-0.793759868,-1.37150923,0,0.690047,0,0
0.46,1439798.39,6143998.575,939107.8412,288.4541745,-64.38958723,-33.77955551,-79.27609506,-136.9808312,0,68.999788,0,0,381.001503,141.377446,39.800926,-0.792762493,-1.369809755,0,0.689998,0,0
0.47,1439801.274,6143997.931,939107.5035,288.4012172,-64.40039247,-33.77725268,-79.1763444,-136.8112019,0,68.994726,0,0,381.001265,83.701574,120.68707,-0.791761836,-1.368113561,0,0.689947,0,0
0.48,1439804.158,6143997.286,939107.1657,288.3483298,-64.41127757,-33.77496912,-79.07681355,-136.6419302,0,68.989556,0,0,381.001029,-12.259454,146.357967,-0.790767742,-1.366420647,0,0.689896,0,0
0.49,1439807.041,6143996.642,939106.828,288.2955127,-64.42224242,-33.77270482,-78.97749925,-136.4730195,0,68.984277,0,0,381.000792,-102.605463,105.084225,-0.789773647,-1.364731015,0,0.689843,0,0
0.5,1439809.923,6143995.998,939106.4903,288.2427661,-64.43328693,-33.7704598,-78.87840147,-136.3044597,0,68.97889,0,0,381.000556,-146.02033,15.756445,-0.788782834,-1.363044663,0,0.689789,0,0
0.51,1439812.805,6143995.353,939106.1526,288.1900903,-64.44441099,-33.76823404,-78.77952024,-136.1362576,0,68.973394,0,0,381.00032,-122.663167,-80.768663,-0.787795301,-1.361361592,0,0.689734,0,0
0.52,1439815.686,6143994.709,939105.8149,288.1374855,-64.45561452,-33.76602757,-78.68085554,-135.9684099,0,68.96779,0,0,381.000085,-43.228217,-140.359461,-0.786807768,-1.359685083,0,0.689678,0,0
0.53,1439818.567,6143994.064,939105.4773,288.0849521,-64.46689742,-33.76384038,-78.58240737,-135.8009164,0,68.962077,0,0,380.99985,55.960186,-135.784912,-0.785823516,-1.358008574,0,0.689621,0,0
0.54,1439821.447,6143993.419,939105.1397,288.0324903,-64.47825958,-33.76167249,-78.48417246,-135.6337707,0,68.956256,0,0,380.999615,129.563871,-69.151398,-0.784842545,-1.356338626,0,0.689563,0,0
0.55,1439824.327,6143992.775,939104.8021,287.9801003,-64.48970091,-33.75952388,-78.3861508,-135.4669794,0,68.950326,0,0,380.99938,143.954552,29.076238,-0.783861574,-1.354668679,0,0.689503,0,0
0.56,1439827.206,6143992.13,939104.4645,287.9277823,-64.50122128,-33.75739456,-78.28833912,-135.3005391,0,68.944288,0,0,380.999146,92.572134,114.01039,-0.782883883,-1.353005293,0,0.689443,0,0
0.57,1439830.085,6143991.484,939104.127,287.8755367,-64.51282061,-33.75528453,-78.19074397,-135.1344466,0,68.938142,0,0,380.998912,-1.094113,146.855032,-0.781906193,-1.351345188,0,0.689381,0,0
0.58,1439832.963,6143990.839,939103.7894,287.8233636,-64.52449877,-33.7531938,-78.09336208,-134.9687018,0,68.931888,0,0,380.998678,-94.252041,112.622285,-0.780935064,-1.349688363,0,0.689319,0,0
0.59,1439835.841,6143990.194,939103.4519,287.7712633,-64.53625567,-33.75112235,-77.99619016,-134.8033016,0,68.925525,0,0,380.998445,-144.360205,26.962686,-0.779960655,-1.348031539,0,0.689255,0,0
0.6,1439838.718,6143989.548,939103.1144,287.7192361,-64.5480912,-33.7490702,-77.89922821,-134.6382523,0,68.919054,0,0,380.998212,-128.551805,-70.999423,-0.778992807,-1.346381277,0,0.689191,0,0
0.61,1439841.595,6143988.903,939102.777,287.6672821,-64.56000524,-33.74703733,-77.80247624,-134.4735443,0,68.912474,0,0,380.997979,-54.061396,-136.541128,-0.778024959,-1.344734295,0,0.689125,0,0
0.62,1439844.471,6143988.257,939102.4395,287.6154018,-64.57199772,-33.74502377,-77.70593425,-134.3091808,0,68.905787,0,0,380.997747,45.096151,-139.757222,-0.777060392,-1.343090594,0,0.689058,0,0
0.63,1439847.347,6143987.611,939102.1021,287.5635953,-64.58406853,-33.74302952,-77.60960222,-134.1451618,0,68.898991,0,0,380.997515,123.66526,-79.19771,-0.776095825,-1.341450174,0,0.68899,0,0
0.64,1439850.222,6143986.965,939101.7647,287.5118629,-64.59621755,-33.74105457,-77.51348017,-133.9814872,0,68.892087,0,0,380.997283,145.805119,17.489176,-0.775134539,-1.339816316,0,0.688921,0,0
0.65,1439853.097,6143986.319,939101.4273,287.4602049,-64.60844468,-33.73909893,-77.41756153,-133.8181506,0,68.885075,0,0,380.997052,101.432906,106.188512,-0.774176534,-1.338182458,0,0.688851,0,0
0.66,1439855.971,6143985.673,939101.0899,287.4086214,-64.62074981,-33.73716259,-77.32185615,-133.6551552,0,68.877954,0,0,380.996821,10.805036,146.449706,-0.773218529,-1.33655188,0,0.68878,0,0
0.67,1439858.844,6143985.027,939100.7526,287.3571128,-64.63313283,-33.73524556,-77.22635418,-133.492501,0,68.870726,0,0,380.99659,-84.740291,119.929058,-0.772263804,-1.334924583,0,0.688707,0,0
0.68,1439861.717,6143984.38,939100.4152,287.3056792,-64.64559362,-33.73334783,-77.1310589,-133.3301814,0,68.86339,0,0,380.996359,-141.64374,38.737296,-0.77130908,-1.333300568,0,0.688634,0,0
0.69,1439864.59,6143983.734,939100.0779,287.2543209,-64.65813207,-33.73146941,-77.03596703,-133.1682031,0,68.855945,0,0,380.996129,-133.980995,-60.102009,-0.770360917,-1.331683113,0,0.688559,0,0
0.7,1439867.462,6143983.087,939099.7406,287.2030381,-64.67074807,-33.72961028,-76.94108186,-133.0065561,0,68.848393,0,0,380.995899,-65.264171,-131.542305,-0.769409473,-1.330065659,0,0.688484,0,0
0.71,1439870.333,6143982.44,939099.4033,287.1518311,-64.68344151,-33.72777046,-76.84640338,-132.8452503,0,68.840732,0,0,380.99567,33.179701,-143.043802,-0.768464592,-1.328451486,0,0.688407,0,0
0.72,1439873.204,6143981.793,939099.0661,287.1007003,-64.6962123,-33.72594995,-76.75192503,-132.6842759,0,68.832964,0,0,380.99544,116.499185,-89.386765,-0.76751971,-1.326843874,0,0.68833,0,0
0.73,1439876.075,6143981.146,939098.7288,287.0496457,-64.70906033,-33.72414876,-76.65765337,-132.5236361,0,68.825088,0,0,380.995212,146.75479,4.971682,-0.766578109,-1.325236263,0,0.688251,0,0
0.74,1439878.945,6143980.499,939098.3916,286.9986678,-64.72198547,-33.72236688,-76.56358185,-132.3633277,0,68.817103,0,0,380.994983,110.188396,97.055839,-0.765636507,-1.323631932,0,0.688171,0,0
0.75,1439881.814,6143979.851,939098.0544,286.9477667,-64.73498763,-33.7206043,-76.46971373,-132.2033507,0,68.809011,0,0,380.994755,23.467683,144.949023,-0.764698187,-1.322034163,0,0.68809,0,0
0.76,1439884.683,6143979.204,939097.7172,286.8969427,-64.74806667,-33.71886104,-76.37604903,-132.0437083,0,68.800812,0,0,380.994527,-73.923262,126.869759,-0.763759867,-1.320436394,0,0.688008,0,0
0.77,1439887.552,6143978.556,939097.38,286.8461959,-64.7612225,-33.71713709,-76.28258446,-131.8843907,0,68.792504,0,0,380.994299,-137.667714,51.0668,-0.762824828,-1.318845187,0,0.687925,0,0
0.78,1439890.42,6143977.909,939097.0429,286.7955267,-64.77445498,-33.71543244,-76.18932002,-131.7254078,0,68.784088,0,0,380.994071,-138.78023,-47.957259,-0.761893069,-1.317253979,0,0.687841,0,0
0.79,1439893.287,6143977.261,939096.7057,286.7449352,-64.787764,-33.71374709,-76.09625572,-131.5667496,0,68.775565,0,0,380.993844,-76.776902,-125.159066,-0.76096131,-1.315666053,0,0.687756,0,0
0.8,1439896.154,6143976.613,939096.3686,286.6944217,-64.80114945,-33.71208105,-76.00338826,-131.4084163,0,68.766934,0,0,380.993617,20.127946,-145.444093,-0.760032833,-1.314084688,0,0.687669,0,0
0.81,1439899.021,6143975.965,939096.0315,286.6439865,-64.81461121,-33.71043431,-75.91072421,-131.250411,0,68.758196,0,0,380.993391,107.87137,-99.611847,-0.759107636,-1.312503323,0,0.687582,0,0
0.82,1439901.886,6143975.316,939095.6944,286.5936298,-64.82814918,-33.70880688,-75.81825702,-131.0927339,0,68.74935,0,0,380.993165,146.580601,-8.515519,-0.758182439,-1.31092852,0,0.687493,0,0
0.83,1439904.752,6143974.668,939095.3574,286.5433519,-64.84176325,-33.70719876,-75.72598668,-130.9353782,0,68.740396,0,0,380.992939,118.68619,86.438473,-0.757260523,-1.309353716,0,0.687404,0,0
0.84,1439907.617,6143974.019,939095.0203,286.4931531,-64.8554533,-33.70560994,-75.63391318,-130.7783474,0,68.731335,0,0,380.992713,36.883728,142.117017,-0.756338607,-1.307782194,0,0.687313,0,0
0.85,1439910.481,6143973.371,939094.6833,286.4430335,-64.86921921,-33.70404044,-75.54203654,-130.621638,0,68.722166,0,0,380.992488,-61.658018,133.250065,-0.755419972,-1.306217233,0,0.687222,0,0
0.86,1439913.345,6143972.722,939094.3462,286.3929934,-64.88306085,-33.70249023,-75.45035675,-130.4652502,0,68.712889,0,0,380.992263,-132.193999,63.887971,-0.754504617,-1.304652273,0,0.687129,0,0
0.87,1439916.209,6143972.073,939094.0092,286.3430331,-64.89697812,-33.70095933,-75.3588738,-130.309184,0,68.703506,0,0,380.992038,-142.719499,-34.463115,-0.753589263,-1.303090593,0,0.687035,0,0
0.88,1439919.072,6143971.424,939093.6722,286.2931527,-64.91097088,-33.69944772,-75.26758443,-130.1534359,0,68.694014,0,0,380.991814,-88.481835,-117.162973,-0.752677189,-1.301535475,0,0.68694,0,0
0.89,1439921.934,6143970.774,939093.3353,286.2433526,-64.92503901,-33.6979554,-75.17648863,-129.9980094,0,68.684416,0,0,380.99159,5.888394,-146.70092,-0.751765116,-1.299980357,0,0.686844,0,0
0.9,1439924.796,6143970.125,939092.9983,286.1936328,-64.9391824,-33.69648238,-75.08558967,-129.8429011,0,68.67471,0,0,380.991366,97.575431,-109.701889,-0.750856323,-1.298428519,0,0.686747,0,0
0.91,1439927.657,6143969.475,939092.6613,286.1439937,-64.95340092,-33.69502864,-74.99488101,-129.6881078,0,68.664897,0,0,380.991143,145.00882,-22.968409,-0.749947531,-1.296879963,0,0.686649,0,0
0.92,1439930.518,6143968.826,939092.3244,286.0944355,-64.96769446,-33.6935942,-74.90436919,-129.5336328,0,68.654976,0,0,380.99092,126.705904,74.164384,-0.7490453,-1.295334687,0,0.68655,0,0
0.93,1439933.379,6143968.176,939091.9875,286.0449586,-64.98206292,-33.69217906,-74.82036657,-129.3866446,0,68.644948,0,0,380.990697,50.987949,137.675735,-0.748202124,-1.293864871,0,0.686449,0,0
0.94,1439936.239,6143967.526,939091.6506,285.9955631,-64.99650615,-33.6907832,-74.74991709,-129.255119,0,68.634814,0,0,380.990474,-47.818509,138.807082,-0.747500024,-1.292552535,0,0.686348,0,0
0.95,1439939.098,6143966.876,939091.3137,285.9462493,-65.01102405,-33.68940663,-74.67956932,-129.1237869,0,68.624571,0,0,380.990252,-124.954013,77.072354,-0.746794643,-1.291236918,0,0.686246,0,0
0.96,1439941.957,6143966.226,939090.9768,285.8970173,-65.02561648,-33.68804935,-74.60932325,-128.9926452,0,68.614222,0,0,380.99003,-145.502905,-19.549817,-0.746092544,-1.289927863,0,0.686142,0,0
0.97,1439944.816,6143965.575,939090.6399,285.8478675,-65.04028332,-33.68671134,-74.53917889,-128.8616905,0,68.603766,0,0,380.989809,-100.188248,-107.309101,-0.745390444,-1.288615527,0,0.686038,0,0
0.98,1439947.674,6143964.925,939090.3031,285.7988,-65.05502444,-33.68539261,-74.46913952,-128.7309293,0,68.593203,0,0,380.989587,-9.544048,-146.497363,-0.744691625,-1.287309752,0,0.685932,0,0
0.99,1439950.531,6143964.274,939089.9662,285.749815,-65.06983971,-33.68409315,-74.39919858,-128.6003552,0,68.582532,0,0,380.989366,85.404428,-119.408073,-0.743992806,-1.286003978,0,0.685825,0,0
1,1439953.388,6143963.623,939089.6294,285.7009129,-65.08472902,-33.68281295,-74.32935933,-128.4699713,0,68.571755,0,0,380.989146,141.715562,-38.321561,-0.743293987,-1.284698204,0,0.685718,0,0
1.01,1439956.245,6143962.972,939089.2926,285.6520938,-65.09969223,-33.68155202,-74.2596218,-128.3397744,0,68.560871,0,0,380.988925,133.948059,60.07827,-0.742595168,-1.283398991,0,0.685609,0,0
1.02,1439959.101,6143962.321,939088.9558,285.603358,-65.11472923,-33.68031036,-74.18998269,-128.2097679,0,68.54988,0,0,380.988705,65.641581,131.309949,-0.74189963,-1.282096498,0,0.685499,0,0
1.03,1439961.956,6143961.67,939088.619,285.5547059,-65.12983992,-33.67908797,-74.12044857,-128.0799483,0,68.538782,0,0,380.988485,-32.313309,143.201288,-0.741204092,-1.280800566,0,0.685388,0,0
1.04,1439964.811,6143961.018,939088.2822,285.5061375,-65.14502414,-33.67788484,-74.05101287,-127.9503158,0,68.527577,0,0,380.988266,-115.657721,90.40846,-0.740508554,-1.279504634,0,0.685276,0,0
1.05,1439967.666,6143960.367,939087.9455,285.4576531,-65.16028179,-33.67670097,-73.98167888,-127.8208702,0,68.516266,0,0,380.988047,-146.764431,-3.199909,-0.739816297,-1.278208702,0,0.685163,0,0
1.06,1439970.52,6143959.715,939087.6087,285.4092531,-65.17561271,-33.67553635,-73.91244331,-127.691615,0,68.504848,0,0,380.987828,-111.616249,-95.349306,-0.739124039,-1.276916051,0,0.685048,0,0
1.07,1439973.374,6143959.063,939087.272,285.3609375,-65.1910168,-33.67439099,-73.84330945,-127.5625435,0,68.493323,0,0,380.987609,-26.105618,-144.456961,-0.738431782,-1.275626681,0,0.684933,0,0
1.08,1439976.227,6143958.411,939086.9352,285.3127066,-65.20649391,-33.67326486,-73.7742773,-127.4336589,0,68.481692,0,0,380.987391,71.168145,-128.390234,-0.737742806,-1.274337311,0,0.684817,0,0
1.09,1439979.079,6143957.759,939086.5985,285.2645606,-65.22204391,-33.67215798,-73.70534357,-127.3049614,0,68.469954,0,0,380.987173,136.331894,-54.426207,-0.737053829,-1.273051222,0,0.6847,0,0
1.1,1439981.932,6143957.106,939086.2618,285.2164997,-65.23766668,-33.67107033,-73.63650826,-127.1764509,0,68.458109,0,0,380.986955,140.024092,44.062359,-0.736364853,-1.271765133,0,0.684581,0,0
1.11,1439984.783,6143956.454,939085.9251,285.1685243,-65.25336207,-33.6700019,-73.56777466,-127.0481274,0,68.446158,0,0,380.986738,80.611005,122.677401,-0.735679157,-1.270482324,0,0.684462,0,0
1.12,1439987.634,6143955.801,939085.5884,285.1206345,-65.26912999,-33.66895272,-73.49913949,-126.9199877,0,68.434101,0,0,380.986521,-15.10922,146.011065,-0.734990181,-1.269199516,0,0.684341,0,0
1.13,1439990.485,6143955.148,939085.2517,285.0728306,-65.2849703,-33.66792276,-73.43060602,-126.7920316,0,68.421937,0,0,380.986304,-104.009008,103.582272,-0.734304485,-1.267919988,0,0.684219,0,0
1.14,1439993.335,6143954.495,939084.9151,285.0251128,-65.30088287,-33.66691202,-73.36217098,-126.6642626,0,68.409667,0,0,380.986087,-146.067752,14.526324,-0.733622071,-1.266643741,0,0.684097,0,0
1.15,1439996.185,6143953.842,939084.5784,284.9774814,-65.31686755,-33.66592051,-73.29383437,-126.5366773,0,68.397291,0,0,380.985871,-122.380325,-81.052451,-0.732939656,-1.265367495,0,0.683973,0,0
1.16,1439999.034,6143953.189,939084.2417,284.9299366,-65.33292423,-33.6649482,-73.22559618,-126.4092757,0,68.384808,0,0,380.985655,-43.637587,-140.149373,-0.732257241,-1.264091248,0,0.683848,0,0
1.17,1440001.883,6143952.535,939083.9051,284.8824785,-65.34905276,-33.6639951,-73.15745969,-126.2820578,0,68.372219,0,0,380.98544,54.717609,-136.204666,-0.731574827,-1.262821563,0,0.683722,0,0
1.18,1440004.732,6143951.882,939083.5685,284.8351075,-65.36525301,-33.6630612,-73.08942163,-126.1550237,0,68.359524,0,0,380.985225,128.455646,-71.024764,-0.730895693,-1.261551878,0,0.683595,0,0
1.19,1440007.58,6143951.228,939083.2319,284.7878237,-65.38152484,-33.6621465,-73.02147871,-126.0281733,0,68.346723,0,0,380.98501,144.449513,26.064359,-0.730213278,-1.260282193,0,0.683467,0,0
1.2,1440010.427,6143950.574,939082.8952,284.7406273,-65.39786812,-33.66125098,-72.95363751,-125.9015067,0,68.333816,0,0,380.984795,95.544368,111.426787,-0.729537425,-1.259015788,0,0.683338,0,0
1.21,1440013.274,6143949.92,939082.5586,284.6935185,-65.4142827,-33.66037465,-72.88589472,-125.7750237,0,68.320803,0,0,380.98458,3.738502,146.732143,-0.728858291,-1.257749384,0,0.683208,0,0
1.22,1440016.12,6143949.265,939082.222,284.6464978,-65.43076849,-33.65951749,-72.81824708,-125.6487212,0,68.307684,0,0,380.984366,-89.72953,116.157448,-0.728182438,-1.256486261,0,0.683077,0,0
1.23,1440018.966,6143948.611,939081.8855,284.5995652,-65.44732534,-33.65867952,-72.75070115,-125.5226024,0,68.294459,0,0,380.984153,-142.912667,33.459741,-0.727506585,-1.255226418,0,0.682945,0,0
1.24,1440021.812,6143947.956,939081.5489,284.5527211,-65.4639531,-33.65786073,-72.68325036,-125.3966641,0,68.281129,0,0,380.983939,-131.974591,-64.233446,-0.726834013,-1.253966576,0,0.682811,0,0
1.25,1440024.657,6143947.301,939081.2123,284.5059655,-65.48065165,-33.6570611,-72.61589799,-125.2709095,0,68.267692,0,0,380.983726,-61.855856,-133.104189,-0.72615816,-1.252710014,0,0.682677,0,0
1.26,1440027.502,6143946.646,939080.8757,284.4592988,-65.49742085,-33.65628062,-72.54864405,-125.1453354,0,68.25415,0,0,380.983513,35.978286,-142.295745,-0.725485588,-1.251453452,0,0.682541,0,0
1.27,1440030.346,6143945.991,939080.5392,284.4127212,-65.51426055,-33.6555193,-72.48148854,-125.0199417,0,68.240502,0,0,380.9833,117.672649,-87.722904,-0.724816296,-1.250200171,0,0.682405,0,0
1.28,1440033.189,6143945.336,939080.2026,284.3662328,-65.53117062,-33.65477713,-72.41442817,-124.8947284,0,68.226748,0,0,380.983088,146.643055,6.133429,-0.724143724,-1.24894689,0,0.682267,0,0
1.29,1440036.032,6143944.681,939079.8661,284.3198339,-65.54815092,-33.65405409,-72.34746623,-124.7696956,0,68.212889,0,0,380.982876,109.947913,97.226055,-0.723474433,-1.24769689,0,0.682129,0,0
1.3,1440038.875,6143944.025,939079.5296,284.2735247,-65.5652013,-33.65335019,-72.28060271,-124.6448432,0,68.198924,0,0,380.982664,24.049078,144.785137,-0.722805141,-1.24644689,0,0.681989,0,0
1.31,1440041.718,6143943.369,939079.193,284.2273054,-65.58232163,-33.6526654,-72.21383433,-124.5201713,0,68.184854,0,0,380.982453,-72.593248,127.557671,-0.722139131,-1.245200171,0,0.681849,0,0
1.32,1440044.559,6143942.713,939078.8565,284.1811764,-65.59951179,-33.65199975,-72.14716438,-124.3956798,0,68.170679,0,0,380.982242,-136.751505,53.286119,-0.72147312,-1.243956733,0,0.681707,0,0
1.33,1440047.401,6143942.057,939078.52,284.1351378,-65.61677164,-33.65135321,-72.08058958,-124.2713655,0,68.156398,0,0,380.982031,-139.762787,-44.792782,-0.72080711,-1.242713294,0,0.681564,0,0
1.34,1440050.242,6143941.401,939078.1835,284.0891898,-65.63410103,-33.65072579,-72.0141132,-124.1472317,0,68.142011,0,0,380.98182,-80.317685,-122.836254,-0.720141099,-1.241473137,0,0.68142,0,0
1.35,1440053.082,6143940.744,939077.847,284.0433328,-65.65149983,-33.65011748,-71.94773196,-124.0232782,0,68.12752,0,0,380.98161,14.992939,-145.994977,-0.719478369,-1.240232979,0,0.681275,0,0
1.36,1440055.922,6143940.087,939077.5105,283.9975668,-65.66896789,-33.64952826,-71.88144587,-123.899502,0,68.112923,0,0,380.9814,103.590513,-103.961403,-0.71881564,-1.238996103,0,0.681129,0,0
1.37,1440058.761,6143939.43,939077.174,283.9518921,-65.68650507,-33.64895814,-71.81525492,-123.7759029,0,68.098221,0,0,380.981191,145.935798,-15.535668,-0.71815291,-1.237759226,0,0.680982,0,0
1.38,1440061.601,6143938.773,939076.8375,283.9063089,-65.70411122,-33.64840709,-71.7491624,-123.652481,0,68.083414,0,0,380.980981,123.165092,79.80364,-0.71749018,-1.23652563,0,0.680834,0,0
1.39,1440064.439,6143938.116,939076.501,283.8608175,-65.72178621,-33.64787512,-71.68316502,-123.5292395,0,68.068502,0,0,380.980772,45.473115,139.535312,-0.716830732,-1.235292034,0,0.680685,0,0
1.4,1440067.277,6143937.459,939076.1646,283.8154179,-65.73952987,-33.64736221,-71.61726607,-123.4061719,0,68.053485,0,0,380.980563,-52.473624,137.055001,-0.716171283,-1.234061719,0,0.680535,0,0
1.41,1440070.115,6143936.801,939075.8281,283.7701105,-65.75734208,-33.64686836,-71.55145898,-123.2832848,0,68.038363,0,0,380.980355,-127.019569,73.506672,-0.715515115,-1.232831404,0,0.680384,0,0
1.42,1440072.952,6143936.143,939075.4916,283.7248956,-65.7752227,-33.64639356,-71.48575032,-123.1605715,0,68.023137,0,0,380.980147,-144.977527,-22.767647,-0.714858947,-1.23160437,0,0.680231,0,0
1.43,1440075.789,6143935.486,939075.1552,283.6797733,-65.7931716,-33.64593782,-71.42013352,-123.0380354,0,68.007805,0,0,380.979939,-98.388454,-108.88622,-0.714202779,-1.230380617,0,0.680078,0,0
1.44,1440078.625,6143934.827,939074.8187,283.6347438,-65.81118861,-33.64550111,-71.35461514,-122.9156765,0,67.992369,0,0,380.979731,-8.025803,-146.532355,-0.713546611,-1.229156863,0,0.679924,0,0
1.45,1440081.461,6143934.169,939074.4823,283.5898075,-65.82927361,-33.64508344,-71.28918863,-122.7934947,0,67.976828,0,0,380.979524,85.888077,-118.991726,-0.712890443,-1.227936391,0,0.679768,0,0
1.46,1440084.297,6143933.511,939074.1458,283.5449644,-65.84742643,-33.64468479,-71.22386055,-122.6714869,0,67.961182,0,0,380.979317,141.595301,-38.551416,-0.712237556,-1.226715919,0,0.679612,0,0
1.47,1440087.132,6143932.852,939073.8094,283.5002147,-65.86564694,-33.64430516,-71.15862432,-122.5496529,0,67.945432,0,0,380.97911,134.363332,59.004953,-0.711584668,-1.225495446,0,0.679454,0,0
1.48,1440089.966,6143932.193,939073.4729,283.4555588,-65.88393498,-33.64394453,-71.09348653,-122.427996,0,67.929578,0,0,380.978904,67.445958,130.329509,-0.710935062,-1.224281535,0,0.679296,0,0
1.49,1440092.8,6143931.534,939073.1365,283.4109968,-65.90229041,-33.64360289,-71.02844059,-122.3065131,0,67.913618,0,0,380.978698,-29.404648,143.769794,-0.710285456,-1.223064344,0,0.679136,0,0
1.5,1440095.634,6143930.875,939072.8001,283.3665288,-65.92071307,-33.64328025,-70.96348652,-122.1852073,0,67.897555,0,0,380.978492,-113.184121,93.399095,-0.709635849,-1.221850433,0,0.678976,0,0
1.51,1440098.467,6143930.216,939072.4636,283.3221552,-65.93920282,-33.64297657,-70.89863088,-122.0640721,0,67.881387,0,0,380.978286,-146.734821,1.605537,-0.708986243,-1.220639803,0,0.678814,0,0
1.52,1440101.3,6143929.556,939072.1272,283.2778762,-65.95775952,-33.64269188,-70.8338671,-121.9431109,0,67.865115,0,0,380.978081,-115.213498,-90.880058,-0.708339918,-1.219432454,0,0.678651,0,0
1.53,1440104.132,6143928.896,939071.7908,283.233692,-65.97638304,-33.64242615,-70.76919846,-121.8223267,0,67.848739,0,0,380.977876,-32.634889,-143.066239,-0.707693592,-1.218221824,0,0.678487,0,0
1.54,1440106.964,6143928.236,939071.4544,283.1896027,-65.99507322,-33.64217938,-70.70462169,-121.7017132,0,67.832259,0,0,380.977671,64.383127,-131.861471,-0.707047267,-1.217017755,0,0.678323,0,0
1.55,1440109.796,6143927.576,939071.118,283.1456088,-66.0138299,-33.64195156,-70.64014006,-121.5812736,0,67.815674,0,0,380.977467,132.87078,-62.270705,-0.706400941,-1.215813687,0,0.678157,0,0
1.56,1440112.627,6143926.916,939070.7815,283.1017102,-66.03265293,-33.64174267,-70.57575357,-121.4610078,0,67.798986,0,0,380.977263,142.535435,34.865241,-0.705757897,-1.214609619,0,0.67799,0,0
1.57,1440115.457,6143926.255,939070.4451,283.0579072,-66.05154217,-33.64155272,-70.51145895,-121.3409127,0,67.782194,0,0,380.977059,89.142415,116.555633,-0.705114852,-1.213408831,0,0.677822,0,0
1.58,1440118.288,6143925.595,939070.1087,283.0142001,-66.07049747,-33.64138168,-70.44725619,-121.2209914,0,67.765298,0,0,380.976856,-3.655114,146.689729,-0.704471807,-1.212211325,0,0.677653,0,0
1.59,1440121.117,6143924.934,939069.7723,282.970589,-66.08951865,-33.64122954,-70.38314858,-121.1012408,0,67.748298,0,0,380.976652,-94.816236,111.985575,-0.703832044,-1.211013818,0,0.677483,0,0
1.6,1440123.946,6143924.273,939069.4359,282.9270742,-66.10860559,-33.64109631,-70.31913283,-120.981664,0,67.731194,0,0,380.976449,-144.071528,27.819659,-0.70319228,-1.209816312,0,0.677312,0,0
1.61,1440126.775,6143923.611,939069.0995,282.8836557,-66.12775811,-33.64098195,-70.25521222,-120.8622545,0,67.713987,0,0,380.976247,-129.702757,-68.610385,-0.702552516,-1.208622086,0,0.67714,0,0
1.62,1440129.604,6143922.95,939068.7631,282.840334,-66.1469761,-33.64088649,-70.1913802,-120.743019,0,67.696676,0,0,380.976044,-58.096757,-134.739039,-0.701912752,-1.207431141,0,0.676967,0,0
1.63,1440132.432,6143922.288,939068.4267,282.7971092,-66.16625938,-33.6408099,-70.12764332,-120.6239573,0,67.679261,0,0,380.975842,39.119397,-141.418409,-0.701276269,-1.206240196,0,0.676793,0,0
1.64,1440135.259,6143921.626,939068.0903,282.7539816,-66.18560782,-33.64075217,-70.06399831,-120.5050629,0,67.661743,0,0,380.975641,119.065697,-85.746752,-0.700639786,-1.205049251,0,0.676617,0,0
1.65,1440138.086,6143920.964,939067.7538,282.7109512,-66.20502126,-33.64071329,-70.00044843,-120.3863392,0,67.644122,0,0,380.975439,146.524891,7.69767,-0.700003303,-1.203864868,0,0.676441,0,0
1.66,1440140.913,6143920.302,939067.4174,282.6680184,-66.22449953,-33.64069326,-69.93698715,-120.2677827,0,67.626397,0,0,380.975238,109.441142,97.729661,-0.699370101,-1.202677204,0,0.676264,0,0
1.67,1440143.739,6143919.64,939067.081,282.6251833,-66.24404248,-33.64069206,-69.873621,-120.1494002,0,67.608569,0,0,380.975037,24.187384,144.717219,-0.698736899,-1.201492821,0,0.676086,0,0
1.68,1440146.565,6143918.977,939066.7446,282.5824461,-66.26364996,-33.64070968,-69.81034344,-120.0311849,0,67.590638,0,0,380.974836,-71.688576,128.017592,-0.698103697,-1.200311718,0,0.675906,0,0
1.69,1440149.391,6143918.314,939066.4082,282.5398071,-66.28332181,-33.6407461,-69.74715774,-119.9131403,0,67.572603,0,0,380.974636,-136.014442,55.022545,-0.697470495,-1.199130616,0,0.675726,0,0
1.7,1440152.215,6143917.651,939066.0718,282.4972663,-66.30305788,-33.64080132,-69.68406719,-119.7952663,0,67.554466,0,0,380.974436,-140.539177,-42.140264,-0.696840573,-1.197952794,0,0.675545,0,0
1.71,1440155.04,6143916.988,939065.7354,282.4548241,-66.32285799,-33.64087532,-69.62106522,-119.6775563,0,67.536226,0,0,380.974236,-83.320158,-120.766166,-0.696210652,-1.196774973,0,0.675362,0,0
1.72,1440157.864,6143916.324,939065.399,282.4124806,-66.34272202,-33.64096811,-69.55815511,-119.5600169,0,67.517882,0,0,380.974037,10.470736,-146.34457,-0.695580731,-1.195600432,0,0.675179,0,0
1.73,1440160.688,6143915.661,939065.0626,282.3702362,-66.36264982,-33.64107967,-69.49533687,-119.4426482,0,67.499436,0,0,380.973838,99.643347,-107.690421,-0.69495409,-1.194425891,0,0.674994,0,0
1.74,1440163.511,6143914.997,939064.7262,282.3280909,-66.38264121,-33.64120999,-69.43261049,-119.3254435,0,67.480887,0,0,380.973639,145.086416,-21.808465,-0.69432745,-1.193254631,0,0.674809,0,0
1.75,1440166.334,6143914.333,939064.3898,282.286045,-66.40269605,-33.64135905,-69.36997597,-119.2084093,0,67.462236,0,0,380.97344,126.911089,73.613226,-0.69370081,-1.192083371,0,0.674622,0,0
1.76,1440169.156,6143913.669,939064.0533,282.2440987,-66.42281416,-33.64152686,-69.30743004,-119.0915425,0,67.443482,0,0,380.973242,53.130905,136.755596,-0.693074169,-1.190915392,0,0.674435,0,0
1.77,1440171.978,6143913.004,939063.7169,282.2022522,-66.4429954,-33.64171338,-69.24497597,-118.9748398,0,67.424625,0,0,380.973044,-43.89905,139.991122,-0.69245081,-1.189747413,0,0.674246,0,0
1.78,1440174.8,6143912.34,939063.3805,282.1605056,-66.4632396,-33.64191861,-69.18261048,-118.8583043,0,67.405665,0,0,380.972846,-121.689645,81.950754,-0.69182745,-1.188582715,0,0.674057,0,0
1.79,1440177.621,6143911.675,939063.0441,282.1188592,-66.4835466,-33.64214254,-69.12033686,-118.7419395,0,67.386604,0,0,380.972649,-146.224904,-11.925955,-0.69120409,-1.187418017,0,0.673866,0,0
1.8,1440180.442,6143911.01,939062.7077,282.0773132,-66.50391623,-33.64238516,-69.0581551,-118.6257354,0,67.36744,0,0,380.972452,-106.819568,-100.564339,-0.690580731,-1.1862566,0,0.673674,0,0
1.81,1440183.262,6143910.345,939062.3712,282.0358677,-66.52434834,-33.64264645,-68.99606192,-118.509702,0,67.348173,0,0,380.972255,-20.744792,-145.234002,-0.689960652,-1.185098463,0,0.673482,0,0
1.82,1440186.082,6143909.679,939062.0348,281.9945229,-66.54484279,-33.6429264,-68.93405732,-118.3938325,0,67.328805,0,0,380.972058,74.368204,-126.460618,-0.689340573,-1.183937046,0,0.673288,0,0
1.83,1440188.902,6143909.013,939061.6984,281.9532792,-66.5653994,-33.64322501,-68.87214459,-118.2781271,0,67.309334,0,0,380.971862,136.99391,-52.4904,-0.688720494,-1.18278219,0,0.673093,0,0
1.84,1440191.721,6143908.348,939061.3619,281.9121367,-66.58601802,-33.64354227,-68.81032372,-118.1625891,0,67.289761,0,0,380.971666,139.836933,44.360588,-0.688103697,-1.181627334,0,0.672898,0,0
1.85,1440194.54,6143907.682,939061.0255,281.8710956,-66.60669849,-33.64387815,-68.74859144,-118.0472151,0,67.270087,0,0,380.97147,81.706565,121.843848,-0.687486899,-1.180472479,0,0.672701,0,0
1.86,1440197.358,6143907.015,939060.6891,281.830156,-66.62744064,-33.64423265,-68.68694774,-117.9320051,0,67.25031,0,0,380.971275,-12.014767,146.209397,-0.686870101,-1.179320904,0,0.672503,0,0
1.87,1440200.176,6143906.349,939060.3526,281.7893183,-66.6482443,-33.64460575,-68.62539262,-117.8169592,0,67.230432,0,0,380.97108,-100.478474,106.88908,-0.686253303,-1.178169329,0,0.672304,0,0
1.88,1440202.993,6143905.682,939060.0162,281.7485824,-66.66910931,-33.64499744,-68.56392608,-117.7020773,0,67.210452,0,0,380.970885,-145.181561,21.051616,-0.685639786,-1.177021035,0,0.672105,0,0
1.89,1440205.81,6143905.015,939059.6797,281.7079487,-66.69003551,-33.64540771,-68.5025514,-117.5873627,0,67.19037,0,0,380.97069,-126.712924,-73.921229,-0.685026269,-1.175872741,0,0.671904,0,0
1.9,1440208.627,6143904.348,939059.3432,281.6674173,-66.71102273,-33.64583653,-68.44126531,-117.4728089,0,67.170186,0,0,380.970496,-53.15569,-136.728356,-0.684412752,-1.174727728,0,0.671702,0,0
1.91,1440211.443,6143903.681,939059.0068,281.6269884,-66.73207081,-33.64628391,-68.3800678,-117.3584191,0,67.149902,0,0,380.970302,43.479948,-140.104684,-0.683799234,-1.173582715,0,0.671499,0,0
1.92,1440214.259,6143903.013,939058.6703,281.5866624,-66.7531796,-33.64674983,-68.31895888,-117.2441901,0,67.129515,0,0,380.970108,121.206601,-82.634411,-0.683188998,-1.172440982,0,0.671295,0,0
1.93,1440217.075,6143902.345,939058.3338,281.5464393,-66.77434894,-33.64723428,-68.25793854,-117.1301251,0,67.109028,0,0,380.969915,146.304292,10.686349,-0.682578762,-1.171302531,0,0.67109,0,0
1.94,1440219.89,6143901.678,939057.9974,281.5063194,-66.79557866,-33.64773726,-68.19700678,-117.0162242,0,67.088439,0,0,380.969721,107.931308,99.346036,-0.681968526,-1.170160799,0,0.670884,0,0
1.95,1440222.704,6143901.009,939057.6609,281.4663028,-66.8168686,-33.64825874,-68.13616032,-116.9024841,0,67.067749,0,0,380.969529,22.778091,144.912453,-0.68136157,-1.169025628,0,0.670677,0,0
1.96,1440225.519,6143900.341,939057.3244,281.4263899,-66.83821859,-33.6487987,-68.07540572,-116.7889079,0,67.046957,0,0,380.969336,-72.220568,127.680494,-0.680754615,-1.167890457,0,0.67047,0,0
1.97,1440228.333,6143899.672,939056.9879,281.3865806,-66.85962846,-33.64935715,-68.01473971,-116.6754926,0,67.026065,0,0,380.969144,-135.920677,55.166542,-0.68014766,-1.166755287,0,0.670261,0,0
1.98,1440231.146,6143899.004,939056.6514,281.3468753,-66.88109803,-33.64993405,-67.954159,-116.562238,0,67.005072,0,0,380.968952,-140.783377,-41.200454,-0.679540704,-1.165623397,0,0.670051,0,0
1.99,1440233.959,6143898.335,939056.3149,281.3072741,-66.90262715,-33.6505294,-67.89367015,-116.4491441,0,66.983978,0,0,380.96876,-84.757431,-119.721651,-0.67893703,-1.164491507,0,0.66984,0,0
2,1440236.772,6143897.665,939055.9784,281.2677771,-66.92421565,-33.65114318,-67.83326661,-116.3362111,0,66.962783,0,0,380.968568,7.887203,-146.473709,-0.678333355,-1.163362898,0,0.669628,0,0
2.01,1440239.584,6143896.996,939055.6419,281.2283846,-66.94586334,-33.65177538,-67.77295164,-116.2234388,0,66.941487,0,0,380.968377,97.098584,-109.946714,-0.67772968,-1.162234289,0,0.669415,0,0
2.02,1440242.396,6143896.326,939055.3053,281.1890968,-66.96757009,-33.65242599,-67.71272198,-116.1108272,0,66.920091,0,0,380.968186,144.367028,-25.966051,-0.677126006,-1.161108961,0,0.669201,0,0
2.03,1440245.207,6143895.656,939054.9688,281.1499139,-66.98933572,-33.65309499,-67.65258091,-115.9983764,0,66.898594,0,0,380.967996,129.33688,69.193251,-0.676525612,-1.159983633,0,0.668986,0,0
2.04,1440248.019,6143894.986,939054.6323,281.1108361,-67.01116005,-33.65378237,-67.59252841,-115.8860864,0,66.876997,0,0,380.967805,58.544981,134.491189,-0.675925218,-1.158861586,0,0.66877,0,0
2.05,1440250.829,6143894.316,939054.2957,281.0718636,-67.03304292,-33.65448812,-67.53256122,-115.7739538,0,66.855299,0,0,380.967615,-37.453589,141.817784,-0.675324825,-1.157739538,0,0.668553,0,0
2.06,1440253.64,6143893.645,939053.9592,281.0329964,-67.05498415,-33.65521221,-67.47268261,-115.661982,0,66.833502,0,0,380.967426,-117.295535,88.070841,-0.674727712,-1.156620772,0,0.668335,0,0
2.07,1440256.45,6143892.975,939053.6226,280.9942349,-67.07698358,-33.65595464,-67.4128893,-115.550171,0,66.811603,0,0,380.967236,-146.63452,-3.562859,-0.674127318,-1.155502005,0,0.668116,0,0
2.08,1440259.259,6143892.304,939053.286,280.9555791,-67.09904104,-33.65671538,-67.35318129,-115.4385175,0,66.789605,0,0,380.967047,-112.898564,-93.637341,-0.673530205,-1.15438652,0,0.667896,0,0
2.09,1440262.068,6143891.632,939052.9495,280.9170294,-67.12115634,-33.65749442,-67.29356186,-115.3270214,0,66.767507,0,0,380.966858,-30.646501,-143.438107,-0.672936373,-1.153271034,0,0.667675,0,0
2.1,1440264.877,6143890.961,939052.6129,280.8785857,-67.14332931,-33.65829175,-67.23403102,-115.2156828,0,66.745309,0,0,380.966669,64.74532,-131.610803,-0.67233926,-1.152155549,0,0.667453,0,0
2.11,1440267.685,6143890.289,939052.2763,280.8402484,-67.1655598,-33.65910735,-67.1745822,-115.104505,0,66.723011,0,0,380.966481,132.315432,-63.290188,-0.671745428,-1.151046625,0,0.66723,0,0
2.12,1440270.494,6143889.617,939051.9397,280.8020177,-67.18784763,-33.65994122,-67.11522196,-114.9934847,0,66.700613,0,0,380.966293,143.102535,32.161276,-0.671151596,-1.14993442,0,0.667006,0,0
2.13,1440273.301,6143888.945,939051.6031,280.7638938,-67.21019266,-33.66079333,-67.05595031,-114.8826185,0,66.678115,0,0,380.966105,92.535563,113.795935,-0.670561045,-1.148825496,0,0.666781,0,0
2.14,1440276.108,6143888.273,939051.2665,280.7258768,-67.23259469,-33.66166369,-66.99676067,-114.7719131,0,66.655518,0,0,380.965917,2.337765,146.65109,-0.669967213,-1.147719853,0,0.666555,0,0
2.15,1440278.915,6143887.6,939050.9299,280.687967,-67.25505355,-33.66255225,-66.93765962,-114.6613652,0,66.632821,0,0,380.96573,-88.83366,116.705829,-0.669376662,-1.14661421,0,0.666328,0,0
2.16,1440281.722,6143886.928,939050.5932,280.6501644,-67.27756907,-33.66345903,-66.87864059,-114.5509715,0,66.610025,0,0,380.965543,-141.967025,36.833356,-0.668786111,-1.145508567,0,0.6661,0,0
2.17,1440284.528,6143886.255,939050.2566,280.6124694,-67.30014108,-33.66438398,-66.81971014,-114.4407353,0,66.58713,0,0,380.965357,-134.378974,-58.764669,-0.668195559,-1.144406205,0,0.665871,0,0
2.18,1440287.334,6143885.581,939049.9199,280.574882,-67.3227694,-33.66532711,-66.760865,-114.3306565,0,66.564135,0,0,380.96517,-69.370705,-129.222147,-0.667608289,-1.143307123,0,0.665641,0,0
2.19,1440290.139,6143884.908,939049.5833,280.5374024,-67.34545384,-33.66628838,-66.70210515,-114.220732,0,66.541041,0,0,380.964984,25.241179,-144.475617,-0.667021019,-1.142208042,0,0.66541,0,0
2.2,1440292.944,6143884.234,939049.2466,280.5000308,-67.36819425,-33.6672678,-66.64343061,-114.1109649,0,66.517848,0,0,380.964798,109.052096,-98.069489,-0.666433748,-1.14110896,0,0.665178,0,0
2.21,1440295.749,6143883.56,939048.9099,280.4627674,-67.39099043,-33.66826532,-66.58484137,-114.0013521,0,66.494556,0,0,380.964613,146.330214,-9.854763,-0.665849759,-1.14001316,0,0.664946,0,0
2.22,1440298.553,6143882.886,939048.5732,280.4256125,-67.41384223,-33.66928096,-66.52633415,-113.8918967,0,66.471165,0,0,380.964427,121.234232,82.532253,-0.665262488,-1.138917359,0,0.664712,0,0
2.23,1440301.357,6143882.212,939048.2365,280.388566,-67.43674946,-33.67031469,-66.46791551,-113.7825922,0,66.447675,0,0,380.964242,44.513941,139.740776,-0.664678499,-1.13782484,0,0.664477,0,0
2.24,1440304.16,6143881.537,939047.8998,280.3516284,-67.45971196,-33.6713665,-66.4095789,-113.6734452,0,66.424087,0,0,380.964058,-51.127217,137.457802,-0.664094509,-1.136735601,0,0.664241,0,0
2.25,1440306.963,6143880.862,939047.5631,280.3147996,-67.48272955,-33.67243636,-66.35132758,-113.5644525,0,66.4004,0,0,380.963873,-124.99327,76.713665,-0.663513801,-1.135643081,0,0.664004,0,0
2.26,1440309.766,6143880.187,939047.2263,280.27808,-67.50580204,-33.67352426,-66.29316157,-113.4556139,0,66.376614,0,0,380.963689,-145.711658,-16.615694,-0.662933092,-1.134557123,0,0.663766,0,0
2.27,1440312.569,6143879.512,939046.8896,280.2414695,-67.52892925,-33.67463018,-66.23508086,-113.3469295,0,66.35273,0,0,380.963505,-104.536277,-102.858154,-0.662352383,-1.133467884,0,0.663527,0,0
2.28,1440315.371,6143878.837,939046.5528,280.2049686,-67.55211102,-33.67575411,-66.17708217,-113.2383993,0,66.328747,0,0,380.963321,-19.00584,-145.416905,-0.661771675,-1.132385207,0,0.663287,0,0
2.29,1440318.172,6143878.161,939046.2161,280.1685772,-67.57534715,-33.67689602,-66.11916878,-113.1300233,0,66.304667,0,0,380.963138,74.558056,-126.285627,-0.661190966,-1.131299249,0,0.663047,0,0
2.3,1440320.974,6143877.485,939045.8793,280.1322955,-67.59863747,-33.6780559,-66.06133742,-113.0217982,0,66.280488,0,0,380.962955,136.491106,-53.63587,-0.660613538,-1.130216572,0,0.662805,0,0
2.31,1440323.775,6143876.809,939045.5425,280.0961238,-67.62198179,-33.67923373,-66.00359135,-112.9137274,0,66.256211,0,0,380.962772,140.59445,41.707248,-0.66003611,-1.129137175,0,0.662562,0,0
2.32,1440326.575,6143876.132,939045.2057,280.0600623,-67.64537997,-33.68042951,-65.94593059,-112.8058107,0,66.231836,0,0,380.96259,85.190909,119.366949,-0.659458683,-1.128057779,0,0.662318,0,0
2.33,1440329.376,6143875.455,939044.8689,280.0241111,-67.66883182,-33.68164321,-65.88835185,-112.6980449,0,66.207363,0,0,380.962407,-6.225357,146.515768,-0.658884536,-1.126981663,0,0.662074,0,0
2.34,1440332.175,6143874.778,939044.532,279.9882704,-67.69233716,-33.68287482,-65.83085841,-112.5904301,0,66.182793,0,0,380.962225,-94.980413,111.731879,-0.658307108,-1.125905548,0,0.661828,0,0
2.35,1440334.975,6143874.101,939044.1952,279.9525404,-67.7158958,-33.68412432,-65.77344699,-112.4829695,0,66.158124,0,0,380.962044,-143.592026,29.770587,-0.657732961,-1.124829432,0,0.661581,0,0
2.36,1440337.774,6143873.424,939043.8583,279.9169213,-67.73950757,-33.68539169,-65.71611759,-112.3756598,0,66.133358,0,0,380.961862,-131.586236,-64.727789,-0.657162095,-1.123756598,0,0.661334,0,0
2.37,1440340.573,6143872.746,939043.5215,279.8814131,-67.76317228,-33.68667691,-65.65887021,-112.2685042,0,66.108495,0,0,380.961681,-64.09009,-131.896745,-0.656587948,-1.122683763,0,0.661085,0,0
2.38,1440343.371,6143872.068,939043.1846,279.8460161,-67.78688976,-33.68797997,-65.60170814,-112.1614964,0,66.083534,0,0,380.9615,30.39285,-143.45812,-0.656017081,-1.121614209,0,0.660835,0,0
2.39,1440346.169,6143871.39,939042.8477,279.8107305,-67.81065981,-33.68930084,-65.54462808,-112.0546394,0,66.058476,0,0,380.96132,112.04489,-94.602153,-0.655446215,-1.120547936,0,0.660585,0,0
2.4,1440348.967,6143870.712,939042.5108,279.7755563,-67.83448226,-33.69063951,-65.48763333,-111.9479367,0,66.03332,0,0,380.961139,146.519138,-5.952654,-0.654875349,-1.119478382,0,0.660333,0,0
2.41,1440351.765,6143870.033,939042.1739,279.7404938,-67.85835691,-33.69199595,-65.43071732,-111.8413815,0,66.008068,0,0,380.960959,119.36937,85.169906,-0.654307764,-1.11841539,0,0.660081,0,0
2.42,1440354.562,6143869.355,939041.8369,279.7055432,-67.88228362,-33.69337017,-65.37388661,-111.7349773,0,65.982718,0,0,380.96078,42.070133,140.473239,-0.653740178,-1.117349117,0,0.659827,0,0
2.43,1440357.358,6143868.676,939041.5,279.6707047,-67.9062622,-33.69476213,-65.31713792,-111.6287208,0,65.957272,0,0,380.9606,-52.867366,136.774765,-0.653172593,-1.116286125,0,0.659573,0,0
2.44,1440360.155,6143867.996,939041.163,279.6359784,-67.93029246,-33.69617183,-65.26047125,-111.5226184,0,65.931729,0,0,380.960421,-125.590411,75.690233,-0.652605008,-1.115226414,0,0.659317,0,0
2.45,1440362.951,6143867.317,939040.8261,279.6013645,-67.95437421,-33.69759923,-65.2038866,-111.4166637,0,65.906089,0,0,380.960242,-145.632999,-17.107326,-0.652037422,-1.114166702,0,0.659061,0,0
2.46,1440365.746,6143866.637,939040.4891,279.5668632,-67.97850728,-33.69904433,-65.14738397,-111.3108566,0,65.880352,0,0,380.960063,-104.655856,-102.705653,-0.651473118,-1.113106991,0,0.658804,0,0
2.47,1440368.542,6143865.957,939040.1521,279.5324745,-68.00269148,-33.70050711,-65.09096337,-111.2052004,0,65.854519,0,0,380.959885,-19.880453,-145.278131,-0.650908813,-1.112050561,0,0.658545,0,0
2.48,1440371.337,6143865.277,939039.815,279.4981987,-68.02692662,-33.70198753,-65.0346215,-111.0996952,0,65.828589,0,0,380.959707,73.181707,-127.063269,-0.65034779,-1.110997411,0,0.658286,0,0
2.49,1440374.131,6143864.596,939039.478,279.4640359,-68.05121251,-33.70348559,-64.97836494,-110.9943343,0,65.802563,0,0,380.959529,135.62121,-55.742202,-0.649783485,-1.109944261,0,0.658026,0,0
2.5,1440376.926,6143863.915,939039.141,279.4299863,-68.07554898,-33.70500127,-64.9221904,-110.8891243,0,65.776441,0,0,380.959351,141.392056,38.836336,-0.649222462,-1.108891112,0,0.657764,0,0
2.51,1440379.72,6143863.234,939038.8039,279.39605,-68.09993582,-33.70653454,-64.8660946,-110.7840619,0,65.750222,0,0,380.959174,88.148926,117.172569,-0.648661438,-1.107841243,0,0.657502,0,0
2.52,1440382.513,6143862.553,939038.4668,279.3622273,-68.12437288,-33.70808538,-64.81008081,-110.6791472,0,65.723908,0,0,380.958997,-1.837266,146.614931,-0.648100414,-1.106791374,0,0.657239,0,0
2.53,1440385.307,6143861.872,939038.1297,279.3285182,-68.14885996,-33.70965379,-64.75414905,-110.5743802,0,65.697498,0,0,380.95882,-91.025774,114.949083,-0.647542672,-1.105744786,0,0.656975,0,0
2.54,1440388.1,6143861.19,939037.7926,279.2949231,-68.17339688,-33.71123975,-64.69829931,-110.4697575,0,65.670992,0,0,380.958644,-142.279251,35.429758,-0.646981648,-1.104698198,0,0.65671,0,0
2.55,1440390.892,6143860.508,939037.4555,279.2614419,-68.19798345,-33.71284322,-64.64252832,-110.3652857,0,65.64439,0,0,380.958468,-134.315256,-58.802509,-0.646423905,-1.10365161,0,0.656444,0,0
2.56,1440393.684,6143859.826,939037.1183,279.2280749,-68.22261948,-33.71446419,-64.58683934,-110.2609615,0,65.617692,0,0,380.958292,-70.512276,-128.553539,-0.645869443,-1.102608303,0,0.656177,0,0
2.57,1440396.476,6143859.143,939036.7812,279.1948222,-68.24730478,-33.71610264,-64.5312291,-110.1567817,0,65.590899,0,0,380.958116,22.56029,-144.874764,-0.6453117,-1.101568277,0,0.655909,0,0
2.58,1440399.268,6143858.46,939036.444,279.1616839,-68.27203916,-33.71775855,-64.47570088,-110.0527496,0,65.564011,0,0,380.957941,106.234265,-101.052539,-0.644757238,-1.10052825,0,0.65564,0,0
2.59,1440402.059,6143857.777,939036.1068,279.1286603,-68.29682244,-33.7194319,-64.42025469,-109.9488618,0,65.537027,0,0,380.957766,145.814677,-15.332492,-0.644202777,-1.099488224,0,0.65537,0,0
2.6,1440404.85,6143857.094,939035.7696,279.0957514,-68.32165443,-33.72112267,-64.36488723,-109.8451216,0,65.509948,0,0,380.957591,124.948617,76.710622,-0.643648315,-1.098451479,0,0.655099,0,0
2.61,1440407.641,6143856.411,939035.4324,279.0629575,-68.34653493,-33.72283084,-64.3096018,-109.7415258,0,65.482774,0,0,380.957416,52.347253,136.952958,-0.643097133,-1.097414733,0,0.654828,0,0
2.62,1440410.431,6143855.727,939035.0951,279.0302787,-68.37146378,-33.72455639,-64.2543951,-109.6380744,0,65.455505,0,0,380.957242,-41.887736,140.504223,-0.642542671,-1.096381269,0,0.654555,0,0
2.63,1440413.221,6143855.043,939034.7578,278.9977152,-68.39644079,-33.72629931,-64.19926715,-109.5347706,0,65.428141,0,0,380.957068,-118.76927,85.962498,-0.64199149,-1.095347804,0,0.654281,0,0
2.64,1440416.011,6143854.359,939034.4206,278.9652672,-68.42146577,-33.72805957,-64.14421793,-109.4316111,0,65.400682,0,0,380.956894,-146.55642,-4.071651,-0.64144359,-1.09431762,0,0.654007,0,0
2.65,1440418.8,6143853.674,939034.0833,278.9329348,-68.44653853,-33.72983716,-64.08925074,-109.328596,0,65.373128,0,0,380.956721,-113.836944,-92.391474,-0.640892409,-1.093287437,0,0.653731,0,0
2.66,1440421.589,6143852.99,939033.746,278.9007181,-68.47165887,-33.73163205,-64.03436557,-109.2257253,0,65.34548,0,0,380.956548,-34.177704,-142.571354,-0.640344509,-1.092257253,0,0.653455,0,0
2.67,1440424.378,6143852.305,939033.4086,278.8686174,-68.49682661,-33.73344422,-63.97955585,-109.1229989,0,65.317738,0,0,380.956375,59.536677,-133.976726,-0.639796608,-1.09123035,0,0.653177,0,0
2.68,1440427.166,6143851.62,939033.0713,278.8366326,-68.52204156,-33.73527365,-63.92482816,-109.0204169,0,65.289901,0,0,380.956202,128.699843,-70.216821,-0.639248708,-1.090203447,0,0.652899,0,0
2.69,1440429.954,6143850.934,939032.7339,278.8047641,-68.54730351,-33.73712032,-63.87017921,-108.9179792,0,65.26197,0,0,380.95603,144.88467,22.408848,-0.638700808,-1.089179825,0,0.65262,0,0
2.7,1440432.742,6143850.248,939032.3965,278.7730119,-68.57261229,-33.7389842,-63.815609,-108.8156859,0,65.233945,0,0,380.955857,101.501268,105.787001,-0.638156188,-1.088156203,0,0.652339,0,0
2.71,1440435.529,6143849.562,939032.0591,278.7413761,-68.5979677,-33.74086528,-63.76111753,-108.7135337,0,65.205825,0,0,380.955686,16.441788,145.680259,-0.637611569,-1.087135862,0,0.652058,0,0
2.72,1440438.316,6143848.876,939031.7217,278.7098571,-68.62336955,-33.74276354,-63.70670479,-108.6115258,0,65.177612,0,0,380.955514,-75.333104,125.768306,-0.63706695,-1.08611552,0,0.651776,0,0
2.73,1440441.103,6143848.19,939031.3842,278.6784548,-68.64881766,-33.74467896,-63.6523708,-108.509659,0,65.149305,0,0,380.955343,-136.18033,54.28936,-0.63652233,-1.085095179,0,0.651493,0,0
2.74,1440443.89,6143847.503,939031.0468,278.6471696,-68.67431184,-33.74661151,-63.59811555,-108.4079365,0,65.120904,0,0,380.955172,-141.206392,-39.406159,-0.635980991,-1.084078119,0,0.651209,0,0
2.75,1440446.676,6143846.816,939030.7093,278.6160014,-68.69985189,-33.74856117,-63.54393904,-108.3063552,0,65.09241,0,0,380.955001,-88.422083,-116.932885,-0.635439653,-1.083064339,0,0.650924,0,0
2.76,1440449.462,6143846.129,939030.3718,278.5849505,-68.72543761,-33.75052793,-63.48984127,-108.2049149,0,65.063822,0,0,380.95483,0.510252,-146.598698,-0.634898314,-1.08205056,0,0.650638,0,0
2.77,1440452.247,6143845.441,939030.0342,278.554017,-68.75106882,-33.75251176,-63.43582224,-108.1036189,0,65.03514,0,0,380.95466,89.199317,-116.338277,-0.634356976,-1.08103678,0,0.650351,0,0
2.78,1440455.033,6143844.753,939029.6967,278.523201,-68.77674532,-33.75451263,-63.38188195,-108.0024641,0,65.006366,0,0,380.95449,141.428964,-38.582835,-0.633818918,-1.080026281,0,0.650064,0,0
2.79,1440457.817,6143844.065,939029.3591,278.4925027,-68.80246691,-33.75653053,-63.32801712,-107.9014503,0,64.977498,0,0,380.954321,135.9346,54.883934,-0.63328086,-1.079015783,0,0.649775,0,0
2.8,1440460.602,6143843.377,939029.0215,278.4619222,-68.8282334,-33.75856542,-63.27423103,-107.8005776,0,64.948537,0,0,380.954151,75.028114,125.940139,-0.632742802,-1.078005284,0,0.649485,0,0
2.81,1440463.386,6143842.689,939028.6839,278.4314596,-68.85404459,-33.7606173,-63.22052368,-107.699846,0,64.919483,0,0,380.953982,-16.413483,145.672266,-0.632204745,-1.076998066,0,0.649195,0,0
2.82,1440466.17,6143842,939028.3463,278.4011152,-68.87990032,-33.76268614,-63.16689507,-107.5992554,0,64.890337,0,0,380.953813,-101.139195,106.114795,-0.631669968,-1.075994129,0,0.648903,0,0
2.83,1440468.954,6143841.311,939028.0087,278.3708891,-68.90580038,-33.76477193,-63.11334191,-107.4988059,0,64.861098,0,0,380.953644,-144.707806,23.426754,-0.63113191,-1.074986911,0,0.648611,0,0
2.84,1440471.737,6143840.621,939027.671,278.3407815,-68.93174458,-33.76687464,-63.0598675,-107.3984975,0,64.831766,0,0,380.953476,-129.47174,-68.745225,-0.630597133,-1.073986255,0,0.648318,0,0
2.85,1440474.521,6143839.932,939027.3333,278.3107924,-68.95773273,-33.76899424,-63.00647183,-107.2983269,0,64.802341,0,0,380.953308,-61.690034,-132.976888,-0.630065637,-1.072982318,0,0.648023,0,0
2.86,1440477.303,6143839.242,939026.9956,278.2809221,-68.98376463,-33.77113073,-62.95315162,-107.1982974,0,64.772824,0,0,380.95314,31.082015,-143.255357,-0.62953086,-1.071981662,0,0.647728,0,0
2.87,1440480.086,6143838.552,939026.6579,278.2511707,-69.00984008,-33.77328406,-62.89991015,-107.0984057,0,64.743215,0,0,380.952973,111.222597,-95.485071,-0.628999364,-1.070984286,0,0.647432,0,0
2.88,1440482.868,6143837.861,939026.3201,278.2215382,-69.03595888,-33.77545422,-62.84674414,-106.998655,0,64.713514,0,0,380.952805,146.304839,-9.079388,-0.628467868,-1.069986911,0,0.647135,0,0
2.89,1440485.65,6143837.171,939025.9823,278.1920248,-69.06212084,-33.77764118,-62.79365687,-106.8990421,0,64.683721,0,0,380.952638,122.197178,80.963371,-0.627936372,-1.068989536,0,0.646837,0,0
2.9,1440488.432,6143836.48,939025.6445,278.1626307,-69.08832575,-33.77984492,-62.74064505,-106.7995703,0,64.653836,0,0,380.952472,48.718422,138.251256,-0.627404876,-1.067995441,0,0.646538,0,0
2.91,1440491.213,6143835.789,939025.3067,278.133356,-69.11457343,-33.78206543,-62.6877087,-106.7002331,0,64.623859,0,0,380.952305,-44.400163,139.696803,-0.62687666,-1.067001346,0,0.646239,0,0
2.92,1440493.994,6143835.097,939024.9689,278.1042009,-69.1408637,-33.78430267,-62.63485109,-106.6010369,0,64.59379,0,0,380.952139,-119.56986,84.78972,-0.626348445,-1.066010533,0,0.645938,0,0
2.93,1440496.775,6143834.406,939024.631,278.0751655,-69.16719635,-33.78655663,-62.58206893,-106.5019818,0,64.56363,0,0,380.951973,-146.518657,-4.267137,-0.62582023,-1.065019719,0,0.645636,0,0
2.94,1440499.555,6143833.714,939024.2931,278.0462499,-69.19357119,-33.78882729,-62.52936552,-106.4030611,0,64.533378,0,0,380.951807,-114.45854,-91.568801,-0.625292015,-1.064032186,0,0.645334,0,0
2.95,1440502.335,6143833.022,939023.9552,278.0174544,-69.21998801,-33.79111462,-62.47673428,-106.3042783,0,64.503035,0,0,380.951642,-36.365126,-141.995978,-0.62476708,-1.063041373,0,0.64503,0,0
2.96,1440505.115,6143832.329,939023.6173,277.9887789,-69.24644663,-33.7934186,-62.42418179,-106.2056333,0,64.472601,0,0,380.951477,56.312062,-135.328894,-0.624242146,-1.062057121,0,0.644726,0,0
2.97,1440507.895,6143831.636,939023.2793,277.9602237,-69.27294683,-33.7957392,-62.37170475,-106.1071261,0,64.442076,0,0,380.951312,126.337159,-74.320644,-0.623717212,-1.061072869,0,0.644421,0,0
2.98,1440510.674,6143830.943,939022.9413,277.9317889,-69.29948843,-33.79807639,-62.31930318,-106.0087567,0,64.411459,0,0,380.951147,145.645931,16.479586,-0.623192277,-1.060088617,0,0.644115,0,0
2.99,1440513.453,6143830.25,939022.6033,277.9034746,-69.32607122,-33.80043017,-62.26698034,-105.9105218,0,64.380752,0,0,380.950983,106.566491,100.635854,-0.622670624,-1.059104365,0,0.643808,0,0
3,1440516.232,6143829.557,939022.2653,277.8752809,-69.352695,-33.80280049,-62.21472968,-105.8124246,0,64.349954,0,0,380.950819,24.827253,144.455107,-0.622145689,-1.058123393,0,0.6435,0,0
3.01,1440519.011,6143828.863,939021.9272,277.8472079,-69.37935957,-33.80518733,-62.16255776,-105.7144653,0,64.319065,0,0,380.950655,-66.810538,130.459577,-0.621624036,-1.057145703,0,0.643191,0,0
3.02,1440521.789,6143828.169,939021.5892,277.8192559,-69.40606475,-33.80759068,-62.11045802,-105.6166405,0,64.288086,0,0,380.950491,-131.70322,64.321768,-0.621105663,-1.056168013,0,0.642881,0,0
3.03,1440524.567,6143827.474,939021.2511,277.7914249,-69.43281033,-33.81001052,-62.05843703,-105.5189535,0,64.257017,0,0,380.950328,-143.971634,-27.474998,-0.620584009,-1.055190322,0,0.64257,0,0
3.04,1440527.344,6143826.78,939020.9129,277.7637152,-69.45959612,-33.81244681,-62.0064882,-105.421401,0,64.225857,0,0,380.950165,-98.792424,-108.270232,-0.620065637,-1.054212632,0,0.642259,0,0
3.05,1440530.122,6143826.085,939020.5748,277.7361267,-69.48642192,-33.81489954,-61.95461484,-105.323983,0,64.194607,0,0,380.950002,-14.25298,-145.872952,-0.619547264,-1.053238223,0,0.641946,0,0
3.06,1440532.899,6143825.39,939020.2366,277.7086597,-69.51328752,-33.81736867,-61.90281694,-105.2267028,0,64.163267,0,0,380.94984,75.925942,-125.367446,-0.619028891,-1.052267094,0,0.641633,0,0
3.07,1440535.676,6143824.694,939019.8984,277.6813142,-69.54019272,-33.81985419,-61.8510945,-105.1295539,0,64.131837,0,0,380.949678,135.857687,-54.991941,-0.618510518,-1.051295965,0,0.641318,0,0
3.08,1440538.452,6143823.999,939019.5602,277.6540904,-69.56713732,-33.82235607,-61.79944752,-105.0325427,0,64.100317,0,0,380.949516,141.761825,37.211419,-0.617995427,-1.050324837,0,0.641003,0,0
3.09,1440541.228,6143823.303,939019.222,277.6269883,-69.59412112,-33.82487427,-61.74787599,-104.9356661,0,64.068708,0,0,380.949354,91.368489,114.597487,-0.617480335,-1.049356989,0,0.640687,0,0
3.1,1440544.004,6143822.607,939018.8837,277.6000082,-69.62114392,-33.82740879,-61.69637665,-104.838924,0,64.037009,0,0,380.949192,4.74852,146.485209,-0.616965243,-1.048389141,0,0.64037,0,0
3.11,1440546.78,6143821.91,939018.5454,277.5731502,-69.64820551,-33.82995959,-61.64495276,-104.7423131,0,64.00522,0,0,380.949031,-83.715418,120.299103,-0.616450151,-1.047424574,0,0.640052,0,0
3.12,1440549.556,6143821.213,939018.2071,277.5464143,-69.67530571,-33.83252665,-61.59360433,-104.64584,0,63.973343,0,0,380.94887,-138.991245,46.489352,-0.615935059,-1.046460007,0,0.639733,0,0
3.13,1440552.331,6143820.516,939017.8687,277.5198008,-69.70244433,-33.83510995,-61.54232808,-104.5494981,0,63.941376,0,0,380.94871,-139.258671,-45.678545,-0.615423248,-1.04549544,0,0.639414,0,0
3.14,1440555.106,6143819.819,939017.5303,277.4933098,-69.72962115,-33.83770947,-61.4911273,-104.4532907,0,63.90932,0,0,380.948549,-84.489379,-119.752798,-0.614911437,-1.044534154,0,0.639093,0,0
3.15,1440557.88,6143819.121,939017.1919,277.4669413,-69.75683597,-33.84032517,-61.44000197,-104.3572179,0,63.877175,0,0,380.948389,3.614348,-146.512134,-0.614399626,-1.043572868,0,0.638772,0,0
3.16,1440560.655,6143818.424,939016.8535,277.4406956,-69.78408859,-33.84295704,-61.38894881,-104.2612763,0,63.844941,0,0,380.948229,90.252988,-115.468387,-0.613891096,-1.042611582,0,0.638449,0,0
3.17,1440563.429,6143817.726,939016.515,277.4145727,-69.81137881,-33.84560504,-61.33796784,-104.1654692,0,63.812619,0,0,380.94807,141.287475,-38.936888,-0.613379285,-1.041653577,0,0.638126,0,0
3.18,1440566.203,6143817.027,939016.1766,277.3885727,-69.83870642,-33.84826915,-61.28706233,-104.0697934,0,63.780208,0,0,380.94791,136.677355,52.888695,-0.612870755,-1.040698852,0,0.637802,0,0
3.19,1440568.976,6143816.328,939015.838,277.3626957,-69.86607121,-33.85094935,-61.23623227,-103.9742487,0,63.747709,0,0,380.947751,78.315329,123.87213,-0.612362224,-1.039744128,0,0.637477,0,0
3.2,1440571.75,6143815.63,939015.4995,277.3369419,-69.893473,-33.85364561,-61.18547112,-103.8788386,0,63.715121,0,0,380.947593,-10.790677,146.153476,-0.611853694,-1.038789403,0,0.637151,0,0
3.21,1440574.523,6143814.93,939015.1609,277.3113113,-69.92091156,-33.8563579,-61.1347887,-103.7835598,0,63.682445,0,0,380.947434,-95.620631,111.056988,-0.611348445,-1.037834679,0,0.636824,0,0
3.22,1440577.296,6143814.231,939014.8224,277.2858043,-69.94838672,-33.8590862,-61.08417518,-103.6884121,0,63.649681,0,0,380.947276,-142.916312,32.427919,-0.610843195,-1.036883235,0,0.636497,0,0
3.23,1440580.068,6143813.531,939014.4837,277.2604207,-69.97589827,-33.86183049,-61.03363712,-103.5933957,0,63.616829,0,0,380.947118,-134.204441,-58.868435,-0.610337946,-1.035935073,0,0.636168,0,0
3.24,1440582.841,6143812.831,939014.1451,277.2351609,-70.003446,-33.86459074,-60.98317124,-103.4985105,0,63.58389,0,0,380.94696,-72.975821,-127.084763,-0.609832697,-1.034983629,0,0.635839,0,0
3.25,1440585.613,6143812.131,939013.8064,277.2100249,-70.03102972,-33.86736693,-60.93278082,-103.4037566,0,63.550862,0,0,380.946802,16.755049,-145.584885,-0.609327447,-1.034038747,0,0.635509,0,0
3.26,1440588.385,6143811.43,939013.4677,277.1850127,-70.05864921,-33.87015902,-60.8824593,-103.3091372,0,63.517748,0,0,380.946645,99.900489,-107.215977,-0.608825479,-1.033090584,0,0.635177,0,0
3.27,1440591.156,6143810.729,939013.129,277.1601246,-70.08630427,-33.872967,-60.83221323,-103.2146424,0,63.484545,0,0,380.946488,144.028897,-27.032085,-0.60832351,-1.032145702,0,0.634845,0,0
3.28,1440593.928,6143810.028,939012.7902,277.1353606,-70.11399469,-33.87579083,-60.78203935,-103.1202822,0,63.451256,0,0,380.946332,131.997288,63.651049,-0.607821542,-1.031204101,0,0.634513,0,0
3.29,1440596.699,6143809.327,939012.4514,277.1107208,-70.14172027,-33.87863049,-60.73193764,-103.0260532,0,63.417879,0,0,380.946175,68.573559,129.507107,-0.607319573,-1.030259219,0,0.634179,0,0
3.3,1440599.47,6143808.625,939012.1126,277.0862053,-70.16948081,-33.88148595,-60.68190811,-102.9319521,0,63.384415,0,0,380.946019,-21.49486,144.955437,-0.606817605,-1.029320899,0,0.633844,0,0
3.31,1440602.24,6143807.923,939011.7738,277.0618143,-70.19727609,-33.88435718,-60.63195076,-102.837979,0,63.350864,0,0,380.945863,-103.168216,104.067818,-0.606318917,-1.028379298,0,0.633509,0,0
3.32,1440605.011,6143807.221,939011.4349,277.0375479,-70.22510593,-33.88724417,-60.58206559,-102.7441371,0,63.317227,0,0,380.945707,-144.75359,22.800748,-0.605820229,-1.027440978,0,0.633172,0,0
3.33,1440607.781,6143806.518,939011.096,277.0134062,-70.25297011,-33.89014688,-60.53225259,-102.6504265,0,63.283502,0,0,380.945552,-130.184132,-67.269993,-0.605321542,-1.026502658,0,0.632835,0,0
3.34,1440610.551,6143805.815,939010.7571,276.9893893,-70.28086844,-33.89306529,-60.48251178,-102.5568438,0,63.249692,0,0,380.945397,-65.188334,-131.237669,-0.604826135,-1.025567618,0,0.632497,0,0
3.35,1440613.32,6143805.112,939010.4181,276.9654973,-70.3088007,-33.89599937,-60.43284314,-102.4633891,0,63.215795,0,0,380.945242,25.004414,-144.385971,-0.604327447,-1.024632579,0,0.632158,0,0
3.36,1440616.09,6143804.409,939010.0791,276.9417304,-70.3367667,-33.89894909,-60.38324668,-102.3700623,0,63.181811,0,0,380.945087,105.487432,-101.708485,-0.60383204,-1.02370082,0,0.631818,0,0
3.37,1440618.859,6143803.705,939009.7401,276.9180885,-70.36476621,-33.90191443,-60.3337224,-102.2768668,0,63.147742,0,0,380.944933,145.192888,-19.771816,-0.603336633,-1.022769062,0,0.631477,0,0
3.38,1440621.628,6143803.001,939009.4011,276.8945719,-70.39279904,-33.90489536,-60.28426702,-102.1837992,0,63.113586,0,0,380.944779,128.86446,69.753391,-0.602841227,-1.021837303,0,0.631136,0,0
3.39,1440624.396,6143802.297,939009.062,276.8711806,-70.42086497,-33.90789185,-60.23488382,-102.0908596,0,63.079345,0,0,380.944625,62.880447,132.353011,-0.602349101,-1.020908825,0,0.630793,0,0
3.4,1440627.165,6143801.593,939008.7229,276.8479148,-70.4489638,-33.91090387,-60.18557279,-101.9980446,0,63.045018,0,0,380.944471,-27.279972,143.967909,-0.601856975,-1.019980348,0,0.63045,0,0
3.41,1440629.933,6143800.888,939008.3837,276.8247744,-70.47709532,-33.9139314,-60.13633395,-101.9053609,0,63.010605,0,0,380.944318,-106.905233,100.209344,-0.601364849,-1.019055151,0,0.630106,0,0
3.42,1440632.701,6143800.183,939008.0446,276.8017598,-70.50525935,-33.91697441,-60.087164,-101.8128051,0,62.976107,0,0,380.944165,-145.421019,17.973716,-0.600872723,-1.018126673,0,0.629761,0,0
3.43,1440635.469,6143799.478,939007.7054,276.778871,-70.53345566,-33.92003288,-60.03806951,-101.720374,0,62.941523,0,0,380.944012,-128.109375,-71.119628,-0.600380597,-1.017204757,0,0.629415,0,0
3.44,1440638.237,6143798.772,939007.3661,276.756108,-70.56168407,-33.92310678,-59.98904063,-101.6280708,0,62.906854,0,0,380.943859,-61.693441,-132.904549,-0.599891751,-1.01627956,0,0.629069,0,0
3.45,1440641.004,6143798.066,939007.0269,276.7334711,-70.58994435,-33.92619608,-59.94008394,-101.5358956,0,62.872101,0,0,380.943707,28.315897,-143.76229,-0.599399625,-1.015357644,0,0.628721,0,0
3.46,1440643.771,6143797.36,939006.6876,276.7109602,-70.6182363,-33.92930075,-59.89119942,-101.4438451,0,62.837262,0,0,380.943555,107.4487,-99.61852,-0.59891078,-1.014439009,0,0.628373,0,0
3.47,1440646.538,6143796.653,939006.3482,276.6885755,-70.64655971,-33.93242077,-59.84238709,-101.3519225,0,62.802338,0,0,380.943403,145.482001,-17.428339,-0.598425216,-1.013520374,0,0.628023,0,0
3.48,1440649.305,6143795.947,939006.0089,276.6663171,-70.67491437,-33.9355561,-59.79364036,-101.2601279,0,62.76733,0,0,380.943252,127.961681,71.374049,-0.597936371,-1.012601738,0,0.627673,0,0
3.49,1440652.071,6143795.24,939005.6695,276.6441851,-70.70330007,-33.93870672,-59.7449691,-101.1684547,0,62.732237,0,0,380.943101,61.655906,132.916075,-0.597450807,-1.011683103,0,0.627322,0,0
3.5,1440654.837,6143794.532,939005.3301,276.6221795,-70.73171661,-33.94187259,-59.69636346,-101.0769127,0,62.69706,0,0,380.94295,-28.101975,143.798818,-0.596965242,-1.010767749,0,0.626971,0,0
3.51,1440657.603,6143793.825,939004.9906,276.6003005,-70.76016376,-33.9450537,-59.64783327,-100.9854921,0,62.661799,0,0,380.942799,-107.122361,99.961534,-0.596479678,-1.009855675,0,0.626618,0,0
3.52,1440660.369,6143793.117,939004.6512,276.5785482,-70.78864135,-33.94825001,-59.59936871,-100.8941994,0,62.626453,0,0,380.942648,-145.388006,18.152791,-0.595994114,-1.008943602,0,0.626265,0,0
3.53,1440663.135,6143792.409,939004.3116,276.5569227,-70.81714916,-33.95146151,-59.55097632,-100.8030282,0,62.591024,0,0,380.942498,-128.43548,-70.506819,-0.595508549,-1.008031528,0,0.62591,0,0
3.54,1440665.9,6143791.7,939003.9721,276.5354241,-70.84568697,-33.95468815,-59.50265282,-100.7119849,0,62.55551,0,0,380.942348,-62.782179,-132.38191,-0.595026266,-1.007119455,0,0.625555,0,0
3.55,1440668.665,6143790.991,939003.6325,276.5140525,-70.87425459,-33.95792992,-59.45439823,-100.6210662,0,62.519913,0,0,380.942198,26.62203,-144.07473,-0.594543982,-1.006210662,0,0.625199,0,0
3.56,1440671.43,6143790.282,939003.2929,276.492808,-70.9028518,-33.96118677,-59.40621581,-100.5302722,0,62.484232,0,0,380.942049,105.906595,-101.241008,-0.594061699,-1.005301869,0,0.624842,0,0
3.57,1440674.195,6143789.573,939002.9533,276.4716906,-70.93147838,-33.96445869,-59.35927683,-100.4407644,0,62.448468,0,0,380.9419,145.117948,-20.15982,-0.593592539,-1.0044062,0,0.624485,0,0
3.58,1440676.959,6143788.864,939002.6136,276.4507004,-70.96013414,-33.96774564,-59.31253799,-100.3515026,0,62.412621,0,0,380.941751,129.515142,68.491998,-0.593126659,-1.003513812,0,0.624126,0,0
3.59,1440679.724,6143788.154,939002.2739,276.4298376,-70.98881885,-33.9710476,-59.26586476,-100.2623654,0,62.37669,0,0,380.941602,65.071794,131.265671,-0.592657499,-1.002624704,0,0.623767,0,0
3.6,1440682.488,6143787.443,939001.9341,276.4091022,-71.01753231,-33.97436453,-59.21926043,-100.1733431,0,62.340677,0,0,380.941454,-23.853936,144.553428,-0.59219162,-1.001732316,0,0.623407,0,0
3.61,1440685.252,6143786.733,939001.5943,276.3884943,-71.04627431,-33.9776964,-59.17271843,-100.0844389,0,62.30458,0,0,380.941305,-103.757047,103.435334,-0.591725741,-1.000843208,0,0.623046,0,0
3.62,1440688.015,6143786.022,939001.2545,276.3680141,-71.07504465,-33.9810432,-59.12624205,-99.99565609,0,62.268401,0,0,380.941157,-144.616257,23.456782,-0.591263142,-0.999957381,0,0.622684,0,0
3.63,1440690.779,6143785.311,939000.9147,276.3476617,-71.10384313,-33.98440489,-59.07983129,-99.90699139,0,62.232139,0,0,380.94101,-131.15357,-65.287925,-0.590797263,-0.999068273,0,0.622321,0,0
3.64,1440693.542,6143784.6,939000.5748,276.327437,-71.13266954,-33.98778145,-59.03348614,-99.81844151,0,62.195795,0,0,380.940862,-68.507572,-129.499708,-0.590334665,-0.998185727,0,0.621958,0,0
3.65,1440696.305,6143783.888,939000.2349,276.3073403,-71.16152365,-33.99117284,-58.98720661,-99.73001303,0,62.159368,0,0,380.940715,19.771144,-145.162852,-0.589872066,-0.997299901,0,0.621594,0,0
3.66,1440699.068,6143783.176,938999.895,276.2873716,-71.19040527,-33.99457904,-58.9409927,-99.64169938,0,62.122859,0,0,380.940568,100.605138,-106.496235,-0.589409468,-0.996417355,0,0.621229,0,0
3.67,1440701.831,6143782.464,938999.555,276.267531,-71.21931418,-33.99800001,-58.8948444,-99.55350712,0,62.086268,0,0,380.940422,143.791932,-28.043046,-0.588946869,-0.995534809,0,0.620863,0,0
3.68,1440704.593,6143781.752,938999.215,276.2478185,-71.24825017,-34.00143573,-58.84875844,-99.46542969,0,62.049595,0,0,380.940275,133.269763,60.839073,-0.588487552,-0.994655544,0,0.620496,0,0
3.69,1440707.355,6143781.039,938998.8749,276.2282343,-71.27721302,-34.00488616,-58.8027381,-99.37746709,0,62.012841,0,0,380.940129,73.05227,126.985349,-0.588028234,-0.993776279,0,0.620128,0,0
3.7,1440710.117,6143780.326,938998.5348,276.2087784,-71.30620253,-34.00835128,-58.75678338,-99.28962588,0,61.976005,0,0,380.939983,-14.345882,145.793688,-0.587568916,-0.992897013,0,0.61976,0,0
3.71,1440712.879,6143779.613,938998.1947,276.1894508,-71.33521849,-34.01183105,-58.71089427,-99.20189622,0,61.939087,0,0,380.939838,-96.359878,110.345225,-0.587109599,-0.992017748,0,0.619391,0,0
3.72,1440715.641,6143778.899,938997.8546,276.1702519,-71.36426069,-34.01532545,-58.66506749,-99.11428795,0,61.902088,0,0,380.939692,-142.518027,33.905719,-0.586650281,-0.991141764,0,0.619021,0,0
3.73,1440718.403,6143778.185,938997.5144,276.1511815,-71.39332892,-34.01883445,-58.61930962,-99.02679451,0,61.865008,0,0,380.939547,-135.745793,-55.079549,-0.586194244,-0.990269061,0,0.61865,0,0
3.74,1440721.164,6143777.471,938997.1741,276.1322398,-71.42242298,-34.02235802,-58.5736108,-98.9394159,0,61.827846,0,0,380.939402,-78.64379,-123.594186,-0.585734927,-0.989393076,0,0.618278,0,0
3.75,1440723.925,6143776.756,938996.8339,276.1134269,-71.45154265,-34.02589613,-58.52798088,-98.85215539,0,61.790604,0,0,380.939258,7.554159,-146.297624,-0.58527889,-0.988520373,0,0.617906,0,0
3.76,1440726.686,6143776.041,938996.4936,276.0947428,-71.48068772,-34.02944875,-58.48241001,-98.76500972,0,61.753281,0,0,380.939113,90.911229,-114.869058,-0.584822853,-0.98765095,0,0.617533,0,0
3.77,1440729.447,6143775.326,938996.1533,276.0761877,-71.50985797,-34.03301585,-58.43690804,-98.67797888,0,61.715877,0,0,380.938969,140.631876,-41.013649,-0.584370097,-0.986778247,0,0.617159,0,0
3.78,1440732.207,6143774.611,938995.8129,276.0577615,-71.53905319,-34.03659739,-58.3914684,-98.59106287,0,61.678393,0,0,380.938825,138.423404,47.938475,-0.583914061,-0.985912105,0,0.616784,0,0
3.79,1440734.968,6143773.895,938995.4725,276.0394644,-71.56827318,-34.04019335,-58.34609111,-98.50426496,0,61.640829,0,0,380.938682,85.188997,119.170731,-0.583461305,-0.985042682,0,0.616408,0,0
3.8,1440737.728,6143773.179,938995.1321,276.0212964,-71.59751771,-34.04380369,-58.30077942,-98.41757861,0,61.603184,0,0,380.938538,0.617262,146.485972,-0.583008549,-0.984176541,0,0.616032,0,0
3.81,1440740.488,6143772.463,938994.7916,276.0032577,-71.62678658,-34.04742839,-58.25553336,-98.33101036,0,61.56546,0,0,380.938395,-84.135325,119.914388,-0.582555793,-0.983310399,0,0.615655,0,0
3.82,1440743.248,6143771.746,938994.4511,275.9853482,-71.65607958,-34.05106742,-58.21034963,-98.24455695,0,61.527655,0,0,380.938252,-137.936441,49.309679,-0.582103037,-0.982444257,0,0.615277,0,0
3.83,1440746.007,6143771.03,938994.1105,275.9675682,-71.68539651,-34.05472075,-58.16522824,-98.15821508,0,61.489771,0,0,380.93811,-141.100582,-39.347491,-0.581653562,-0.981581396,0,0.614898,0,0
3.84,1440748.767,6143770.312,938993.7699,275.9499176,-71.71473715,-34.05838834,-58.12016918,-98.07198805,0,61.451807,0,0,380.937968,-92.556307,-113.536877,-0.581200806,-0.980718535,0,0.614518,0,0
3.85,1440751.526,6143769.595,938993.4293,275.9323966,-71.74410129,-34.06207018,-58.07517574,-97.98587584,0,61.413763,0,0,380.937825,-10.161839,-146.12913,-0.580751331,-0.979858955,0,0.614138,0,0
3.86,1440754.285,6143768.877,938993.0887,275.9150052,-71.77348872,-34.06576621,-58.03024464,-97.89987846,0,61.375641,0,0,380.937684,75.901956,-125.281971,-0.580301856,-0.978999375,0,0.613756,0,0
3.87,1440757.044,6143768.159,938992.748,275.8977435,-71.80289922,-34.06947642,-57.98537915,-97.81399591,0,61.337439,0,0,380.937542,134.20334,-58.701248,-0.579852381,-0.978139795,0,0.613374,0,0
3.88,1440759.803,6143767.441,938992.4072,275.8806115,-71.83233257,-34.07320078,-57.940576,-97.72822491,0,61.299158,0,0,380.937401,143.52863,29.250627,-0.579406187,-0.977283496,0,0.612992,0,0
3.89,1440762.562,6143766.722,938992.0665,275.8636093,-71.86178857,-34.07693924,-57.89583519,-97.64256874,0,61.260798,0,0,380.93726,100.567371,106.49866,-0.578956711,-0.976427197,0,0.612608,0,0
3.9,1440765.32,6143766.003,938991.7257,275.8467369,-71.891267,-34.08069178,-57.85115671,-97.55702412,0,61.22236,0,0,380.937119,21.042123,144.957524,-0.578510517,-0.975570897,0,0.612224,0,0
3.91,1440768.079,6143765.284,938991.3848,275.8299946,-71.92076765,-34.08445836,-57.80654056,-97.47159433,0,61.183843,0,0,380.936978,-66.084662,130.720949,-0.578064323,-0.974714598,0,0.611838,0,0
3.92,1440770.837,6143764.565,938991.0439,275.8133802,-71.95028979,-34.08823873,-57.76198676,-97.38627608,0,61.145247,0,0,380.936838,-129.178173,69.049572,-0.57762141,-0.97386158,0,0.611452,0,0
3.93,1440773.595,6143763.845,938990.703,275.796894,-71.97983322,-34.09203283,-57.71749857,-97.30106939,0,61.106573,0,0,380.936698,-145.410419,-17.616706,-0.577175215,-0.973011842,0,0.611066,0,0
3.94,1440776.353,6143763.125,938990.3621,275.780536,-72.00939772,-34.09584065,-57.67307271,-97.21597752,0,61.067822,0,0,380.936558,-108.988335,-97.855893,-0.576732302,-0.972158824,0,0.610678,0,0
3.95,1440779.11,6143762.404,938990.0211,275.7643062,-72.03898308,-34.09966214,-57.62870591,-97.1309972,0,61.028992,0,0,380.936418,-33.17665,-142.664775,-0.576286108,-0.971309086,0,0.61029,0,0
3.96,1440781.868,6143761.684,938989.68,275.7482047,-72.06858909,-34.10349729,-57.58440473,-97.04612843,0,60.990084,0,0,380.936279,54.573834,-135.923949,-0.575843194,-0.970462629,0,0.609901,0,0
3.97,1440784.625,6143760.963,938989.339,275.7322316,-72.09821554,-34.10734605,-57.54016588,-96.96137121,0,60.951099,0,0,380.93614,122.588913,-80.157826,-0.575400281,-0.969612892,0,0.609511,0,0
3.98,1440787.382,6143760.241,938988.9978,275.7163869,-72.12786222,-34.11120839,-57.49598609,-96.87672882,0,60.912036,0,0,380.936001,146.400727,4.454352,-0.574960648,-0.968766435,0,0.60912,0,0
3.99,1440790.139,6143759.52,938988.6567,275.7006707,-72.15752892,-34.11508429,-57.45187192,-96.7921947,0,60.872895,0,0,380.935863,117.521431,87.415233,-0.574517735,-0.967923259,0,0.608729,0,0
4,1440792.896,6143758.798,938988.3155,275.685083,-72.18721541,-34.11897371,-57.40782008,-96.7077754,0,60.833678,0,0,380.935724,46.425161,138.914038,-0.574078102,-0.967076803,0,0.608337,0,0
4.01,1440795.653,6143758.076,938987.9743,275.6696239,-72.2169215,-34.12287662,-57.36382729,-96.62346438,0,60.794383,0,0,380.935586,-41.293062,140.523964,-0.57363847,-0.966233627,0,0.607944,0,0
4.02,1440798.409,6143757.353,938987.633,275.6542928,-72.24664678,-34.12679289,-57.31989685,-96.5392649,0,60.755012,0,0,380.935449,-114.15813,91.759027,-0.573198837,-0.965393732,0,0.60755,0,0
4.03,1440801.166,6143756.631,938987.2917,275.6390896,-72.27639105,-34.13072251,-57.27602874,-96.45517697,0,60.715563,0,0,380.935311,-146.109732,10.17056,-0.572759205,-0.964550556,0,0.607156,0,0
4.04,1440803.922,6143755.908,938986.9503,275.6240145,-72.30615409,-34.13466543,-57.23222296,-96.37120059,0,60.676038,0,0,380.935174,-125.797913,-75.007169,-0.572322853,-0.963710661,0,0.60676,0,0
4.05,1440806.678,6143755.184,938986.609,275.6090675,-72.3359357,-34.13862162,-57.18847952,-96.28733248,0,60.636437,0,0,380.935037,-60.572752,-133.348524,-0.57188322,-0.962874047,0,0.606364,0,0
4.06,1440809.434,6143754.46,938986.2675,275.5942487,-72.36573565,-34.14259105,-57.14479842,-96.20357591,0,60.596759,0,0,380.9349,26.218785,-144.094272,-0.571446869,-0.962034152,0,0.605968,0,0
4.07,1440812.19,6143753.737,938985.9261,275.5795581,-72.39555374,-34.14657369,-57.10117637,-96.1199309,0,60.557005,0,0,380.934763,103.619816,-103.50466,-0.571010517,-0.961200818,0,0.60557,0,0
4.08,1440814.945,6143753.012,938985.5846,275.5649957,-72.42538977,-34.15056951,-57.05761666,-96.03639415,0,60.517175,0,0,380.934627,144.110931,-26.115466,-0.570577446,-0.960364204,0,0.605172,0,0
4.09,1440817.701,6143752.288,938985.243,275.5505616,-72.45524351,-34.15457846,-57.014116,-95.95296567,0,60.477269,0,0,380.934491,133.373707,60.507269,-0.570141094,-0.959530871,0,0.604773,0,0
4.1,1440820.456,6143751.563,938984.9014,275.5362559,-72.48511475,-34.15860053,-56.97068096,-95.86964874,0,60.437288,0,0,380.934355,75.313953,125.60725,-0.569708023,-0.958697537,0,0.604373,0,0
4.11,1440823.211,6143750.838,938984.5598,275.5220786,-72.51500329,-34.16263568,-56.92730169,-95.78644335,0,60.397231,0,0,380.93422,-9.403015,146.152844,-0.569271672,-0.957864204,0,0.603972,0,0
4.12,1440825.967,6143750.112,938984.2181,275.5080298,-72.54490894,-34.16668389,-56.88398804,-95.70334296,0,60.357099,0,0,380.934084,-90.741448,114.95546,-0.568838601,-0.957034151,0,0.603571,0,0
4.13,1440828.721,6143749.387,938983.8764,275.4941096,-72.57483148,-34.17074511,-56.84073345,-95.62035411,0,60.316891,0,0,380.933949,-139.95484,43.140572,-0.568408811,-0.956204099,0,0.603169,0,0
4.14,1440831.476,6143748.66,938983.5347,275.4803181,-72.6047707,-34.17481933,-56.79754119,-95.53747681,0,60.276608,0,0,380.933814,-139.729443,-43.861681,-0.56797574,-0.955374046,0,0.602766,0,0
4.15,1440834.231,6143747.934,938983.1929,275.4666552,-72.6347264,-34.1789065,-56.75440798,-95.4547045,0,60.23625,0,0,380.93368,-90.238183,-115.347011,-0.567542669,-0.954547275,0,0.602363,0,0
4.16,1440836.985,6143747.207,938982.8511,275.453121,-72.66469835,-34.18300659,-56.71133384,-95.37204045,0,60.195818,0,0,380.933545,-9.001611,-146.172953,-0.567112879,-0.953720503,0,0.601958,0,0
4.17,1440839.74,6143746.481,938982.5092,275.4397155,-72.69468635,-34.18711958,-56.66832202,-95.28948796,0,60.155311,0,0,380.933411,75.351608,-125.576251,-0.566683089,-0.952893731,0,0.601553,0,0
4.18,1440842.494,6143745.753,938982.1673,275.4264389,-72.72469019,-34.19124543,-56.62537255,-95.20704373,0,60.114729,0,0,380.933278,133.189835,-60.888639,-0.566253299,-0.95207024,0,0.601147,0,0
4.19,1440845.248,6143745.026,938981.8253,275.4132911,-72.75470965,-34.1953841,-56.58248213,-95.12470449,0,60.074073,0,0,380.933144,144.276896,25.116425,-0.565823509,-0.95124675,0,0.600741,0,0
4.2,1440848.002,6143744.298,938981.4833,275.4002722,-72.78474453,-34.19953556,-56.53965076,-95.04247351,0,60.033343,0,0,380.933011,104.818612,102.271283,-0.565397,-0.950423259,0,0.600333,0,0
4.21,1440850.756,6143743.57,938981.1413,275.3873822,-72.8147946,-34.20369978,-56.49687845,-94.96035409,0,59.992539,0,0,380.932878,28.715761,143.601744,-0.56496721,-0.949603049,0,0.599925,0,0
4.22,1440853.51,6143742.841,938980.7992,275.3746213,-72.8448597,-34.20787673,-56.45416847,-94.87833965,0,59.951662,0,0,380.932745,-57.373031,134.737117,-0.5645407,-0.948782839,0,0.599517,0,0
4.23,1440856.263,6143742.113,938980.4571,275.3619894,-72.87493961,-34.2120664,-56.41152083,-94.7964302,0,59.91071,0,0,380.932612,-123.39132,78.867211,-0.564114191,-0.94796591,0,0.599107,0,0
4.24,1440859.017,6143741.384,938980.1149,275.3494868,-72.90503411,-34.21626873,-56.36892897,-94.7146323,0,59.869685,0,0,380.93248,-146.374035,-4.449315,-0.563687682,-0.9471457,0,0.598697,0,0
4.25,1440861.77,6143740.654,938979.7727,275.3371133,-72.935143,-34.2204837,-56.32639944,-94.63293938,0,59.828587,0,0,380.932348,-118.407005,-86.166326,-0.563264454,-0.94632877,0,0.598286,0,0
4.26,1440864.524,6143739.925,938979.4305,275.3248691,-72.96526606,-34.22471128,-56.28392897,-94.55135145,0,59.787415,0,0,380.932216,-49.308458,-137.888472,-0.562837945,-0.945515122,0,0.597874,0,0
4.27,1440867.277,6143739.195,938979.0882,275.3127541,-72.99540308,-34.22895143,-56.24151755,-94.46987179,0,59.74617,0,0,380.932084,36.860182,-141.723611,-0.562414716,-0.944698193,0,0.597462,0,0
4.28,1440870.03,6143738.464,938978.7459,275.3007684,-73.02555385,-34.23320411,-56.19916847,-94.3885004,0,59.704853,0,0,380.931953,110.199978,-96.436093,-0.561991488,-0.943884545,0,0.597049,0,0
4.29,1440872.783,6143737.734,938978.4035,275.288912,-73.05571816,-34.2374693,-56.15687516,-94.30723399,0,59.663463,0,0,380.931822,145.350968,-17.797529,-0.561568259,-0.943070896,0,0.596635,0,0
4.3,1440875.535,6143737.003,938978.0611,275.277185,-73.0858958,-34.24174696,-56.11464418,-94.22607585,0,59.622,0,0,380.931691,130.237702,66.943989,-0.561145031,-0.942260529,0,0.59622,0,0
4.31,1440878.288,6143736.272,938977.7186,275.2655874,-73.11608656,-34.24603705,-56.07247227,-94.14501942,0,59.580464,0,0,380.93156,70.176246,128.523741,-0.560725084,-0.941450161,0,0.595805,0,0
4.32,1440881.041,6143735.54,938977.3761,275.2541193,-73.14629024,-34.25033956,-56.03035612,-94.06407125,0,59.538857,0,0,380.93143,-14.0395,145.75888,-0.560305136,-0.940639794,0,0.595389,0,0
4.33,1440883.793,6143734.808,938977.0336,275.2427807,-73.17650663,-34.25465444,-55.98830232,-93.98322807,0,59.497177,0,0,380.9313,-93.369093,112.803689,-0.559881908,-0.939832707,0,0.594972,0,0
4.34,1440886.545,6143734.076,938976.691,275.2315717,-73.20673552,-34.25898167,-55.94630756,-93.90249316,0,59.455426,0,0,380.93117,-140.548785,41.087713,-0.55946196,-0.939025621,0,0.594554,0,0
4.35,1440889.298,6143733.344,938976.3483,275.2204923,-73.23697671,-34.26332121,-55.90437187,-93.82185996,0,59.413603,0,0,380.93104,-139.444258,-44.689615,-0.559045293,-0.938218534,0,0.594136,0,0
4.36,1440892.05,6143732.611,938976.0057,275.2095425,-73.26722997,-34.26767302,-55.86249523,-93.74133502,0,59.371708,0,0,380.930911,-90.530488,-115.090378,-0.558625346,-0.937414728,0,0.593717,0,0
4.37,1440894.802,6143731.878,938975.6629,275.1987224,-73.2974951,-34.27203707,-55.82067764,-93.66091179,0,59.329741,0,0,380.930782,-10.650838,-146.040494,-0.558205398,-0.936607642,0,0.593297,0,0
4.38,1440897.554,6143731.145,938975.3202,275.1880319,-73.32777189,-34.27641333,-55.77891583,-93.58059683,0,59.287704,0,0,380.930653,72.819791,-127.036398,-0.557788732,-0.935807117,0,0.592877,0,0
4.39,1440900.305,6143730.412,938974.9774,275.1774712,-73.35806012,-34.28080176,-55.73721635,-93.50038357,0,59.245595,0,0,380.930524,131.372701,-64.667488,-0.557372065,-0.935003311,0,0.592456,0,0
4.4,1440903.057,6143729.678,938974.6345,275.1670401,-73.38835958,-34.28520233,-55.69557265,-93.42027858,0,59.203415,0,0,380.930396,145.092412,19.712049,-0.556955398,-0.934202786,0,0.592034,0,0
4.41,1440905.809,6143728.943,938974.2916,275.1567389,-73.41867006,-34.289615,-55.65399128,-93.3402753,0,59.161165,0,0,380.930268,109.397676,97.32535,-0.556538732,-0.933402261,0,0.591612,0,0
4.42,1440908.56,6143728.209,938973.9487,275.1465675,-73.44899138,-34.29403976,-55.61246569,-93.260377,0,59.118844,0,0,380.93014,36.526237,141.79426,-0.556125346,-0.932605017,0,0.591188,0,0
4.43,1440911.311,6143727.474,938973.6057,275.136526,-73.47932332,-34.29847656,-55.57099587,-93.18058041,0,59.076452,0,0,380.930012,-48.701448,138.085661,-0.555708679,-0.931804492,0,0.590765,0,0
4.44,1440914.063,6143726.739,938973.2627,275.1266145,-73.50966568,-34.30292537,-55.52958839,-93.10088881,0,59.03399,0,0,380.929885,-117.359642,87.555116,-0.555295293,-0.931010528,0,0.59034,0,0
4.45,1440916.814,6143726.004,938972.9196,275.1168328,-73.54001823,-34.30738615,-55.48823668,-93.02130219,0,58.991458,0,0,380.929758,-146.232668,7.409041,-0.554881908,-0.930213284,0,0.589915,0,0
4.46,1440919.565,6143725.268,938972.5765,275.1071812,-73.57038078,-34.31185888,-55.44694731,-92.94182056,0,58.948856,0,0,380.929631,-125.638338,-75.190415,-0.554468522,-0.929419321,0,0.589489,0,0
4.47,1440922.316,6143724.532,938972.2333,275.0976595,-73.6007531,-34.31634352,-55.40571043,-92.86243735,0,58.906185,0,0,380.929504,-62.63227,-132.346109,-0.554058417,-0.928625358,0,0.589062,0,0
4.48,1440925.067,6143723.796,938971.8901,275.0882678,-73.63113499,-34.32084003,-55.36453589,-92.78316242,0,58.863443,0,0,380.929378,21.452477,-144.837111,-0.553645031,-0.927831395,0,0.588634,0,0
4.49,1440927.818,6143723.059,938971.5468,275.0790062,-73.66152623,-34.32534837,-55.32341712,-92.70398591,0,58.820632,0,0,380.929252,98.258625,-108.549269,-0.553234926,-0.927040712,0,0.588206,0,0
4.5,1440930.568,6143722.322,938971.2035,275.0698746,-73.69192662,-34.32986852,-55.28235413,-92.62491766,0,58.777752,0,0,380.929126,141.974727,-35.785223,-0.552824821,-0.92625003,0,0.587778,0,0
4.51,1440933.319,6143721.585,938970.8602,275.060873,-73.72233594,-34.33440044,-55.24135347,-92.54594784,0,58.734803,0,0,380.929,137.990258,48.946888,-0.552414716,-0.925459347,0,0.587348,0,0
4.52,1440936.069,6143720.847,938970.5168,275.0520016,-73.75275401,-34.3389441,-55.20040531,-92.46707973,0,58.691784,0,0,380.928874,87.74014,117.211268,-0.552004611,-0.924671946,0,0.586918,0,0
4.53,1440938.82,6143720.11,938970.1734,275.0432604,-73.78318062,-34.34349946,-55.15951948,-92.3883166,0,58.648697,0,0,380.928749,8.145642,146.185384,-0.551594506,-0.923884544,0,0.586487,0,0
4.54,1440941.57,6143719.371,938969.8299,275.0346494,-73.81361555,-34.3480665,-55.1206284,-92.31146293,0,58.605541,0,0,380.928624,-74.119664,126.263605,-0.551207367,-0.923113547,0,0.586055,0,0
4.55,1440944.32,6143718.633,938969.4864,275.0261686,-73.8440586,-34.35264518,-55.08210478,-92.23499639,0,58.562317,0,0,380.928499,-131.58406,64.199396,-0.550820228,-0.922349111,0,0.585623,0,0
4.56,1440947.071,6143717.894,938969.1428,275.0178181,-73.87450955,-34.35723546,-55.04362381,-92.15861187,0,58.519024,0,0,380.928375,-145.141138,-19.227124,-0.550436369,-0.921584675,0,0.58519,0,0
4.57,1440949.821,6143717.155,938968.7992,275.0095977,-73.90496819,-34.36183731,-55.00518221,-92.08231266,0,58.475663,0,0,380.928251,-110.36967,-96.197054,-0.550052511,-0.92082352,0,0.584757,0,0
4.58,1440952.571,6143716.416,938968.4555,275.0015076,-73.93543431,-34.3664507,-54.96677997,-92.00609874,0,58.432234,0,0,380.928127,-38.930675,-141.136264,-0.549668653,-0.920062365,0,0.584322,0,0
4.59,1440955.321,6143715.676,938968.1118,274.9935478,-73.96590771,-34.37107557,-54.92842039,-91.92996685,0,58.388738,0,0,380.928003,45.383737,-139.19434,-0.549284794,-0.919301211,0,0.583887,0,0
4.6,1440958.07,6143714.936,938967.768,274.9857182,-73.99638816,-34.37571191,-54.89010018,-91.85391698,0,58.345174,0,0,380.927879,114.597894,-91.114083,-0.548900936,-0.918540056,0,0.583452,0,0
4.61,1440960.82,6143714.196,938967.4242,274.9780189,-74.02687547,-34.38035968,-54.85181934,-91.77795241,0,58.301542,0,0,380.927756,145.833976,-12.907764,-0.548517078,-0.917778901,0,0.583015,0,0
4.62,1440963.57,6143713.455,938967.0804,274.97045,-74.05736943,-34.38501884,-54.81358115,-91.70207314,0,58.257843,0,0,380.927633,128.84854,69.512003,-0.5481365,-0.917021027,0,0.582578,0,0
4.63,1440966.32,6143712.714,938966.7365,274.9630114,-74.08786983,-34.38968936,-54.77538561,-91.6262759,0,58.214076,0,0,380.92751,69.350072,128.934628,-0.547752642,-0.916263153,0,0.582141,0,0
4.64,1440969.069,6143711.973,938966.3926,274.9557031,-74.11837647,-34.39437121,-54.73722616,-91.55056067,0,58.170243,0,0,380.927388,-12.96262,145.826087,-0.547372065,-0.915505279,0,0.581702,0,0
4.65,1440971.819,6143711.232,938966.0486,274.9485252,-74.14888914,-34.39906435,-54.69910936,-91.47492747,0,58.126343,0,0,380.927265,-90.953729,114.718798,-0.546991487,-0.914750685,0,0.581263,0,0
4.66,1440974.568,6143710.49,938965.7045,274.9414777,-74.17940762,-34.40376874,-54.66103193,-91.39937957,0,58.082376,0,0,380.927143,-139.005236,45.937285,-0.54661091,-0.913992811,0,0.580824,0,0
4.67,1440977.317,6143709.748,938965.3604,274.9345606,-74.2099317,-34.40848436,-54.62299715,-91.32391368,0,58.038343,0,0,380.927022,-141.415309,-37.869602,-0.546230332,-0.913238218,0,0.580383,0,0
4.68,1440980.067,6143709.006,938965.0163,274.9277739,-74.24046118,-34.41321115,-54.58500175,-91.2485331,0,57.994244,0,0,380.9269,-97.492656,-109.212112,-0.545849755,-0.912486906,0,0.579942,0,0
4.69,1440982.816,6143708.263,938964.6721,274.9211175,-74.27099584,-34.41794909,-54.54704571,-91.17323454,0,57.950078,0,0,380.926779,-21.706318,-144.777919,-0.545469178,-0.911732313,0,0.579501,0,0
4.7,1440985.565,6143707.52,938964.3279,274.9145915,-74.30153547,-34.42269815,-54.50913232,-91.09801801,0,57.905847,0,0,380.926658,61.118403,-133.026532,-0.545091881,-0.910981,0,0.579058,0,0
4.71,1440988.314,6143706.776,938963.9836,274.9081959,-74.33207987,-34.42745827,-54.4712583,-91.02288349,0,57.861549,0,0,380.926537,123.950843,-77.893601,-0.544711304,-0.910229688,0,0.578615,0,0
4.72,1440991.063,6143706.033,938963.6393,274.9019308,-74.36262885,-34.43222945,-54.43342366,-90.94783428,0,57.817186,0,0,380.926416,146.370508,2.570254,-0.544334007,-0.909478376,0,0.578172,0,0
4.73,1440993.812,6143705.289,938963.2949,274.8957961,-74.39318219,-34.43701164,-54.39563166,-90.8728638,0,57.772758,0,0,380.926296,121.174458,82.142499,-0.54395671,-0.908727063,0,0.577728,0,0
4.74,1440996.561,6143704.545,938962.9505,274.8897919,-74.4237397,-34.44180481,-54.35787904,-90.79797863,0,57.728264,0,0,380.926176,56.648378,134.986327,-0.543579414,-0.907979032,0,0.577283,0,0
4.75,1440999.31,6143703.8,938962.606,274.8839182,-74.45430116,-34.44660892,-54.32016578,-90.72317548,0,57.683706,0,0,380.926056,-26.200011,144.026437,-0.543202117,-0.907231,0,0.576837,0,0
4.76,1441002.059,6143703.055,938962.2615,274.878175,-74.48486636,-34.45142393,-54.28249518,-90.64845434,0,57.639082,0,0,380.925936,-100.508429,106.432227,-0.542824821,-0.906482969,0,0.576391,0,0
4.77,1441004.807,6143702.31,938961.917,274.8725622,-74.51543508,-34.45624981,-54.24486394,-90.57381523,0,57.594393,0,0,380.925817,-142.274538,34.459064,-0.542447524,-0.905738218,0,0.575944,0,0
4.78,1441007.556,6143701.565,938961.5724,274.8670799,-74.54600713,-34.46108653,-54.20727208,-90.49926143,0,57.54964,0,0,380.925697,-138.089001,-48.586082,-0.542073508,-0.904993467,0,0.575496,0,0
4.79,1441010.305,6143700.819,938961.2277,274.861728,-74.5765823,-34.46593404,-54.16971958,-90.42478636,0,57.504823,0,0,380.925578,-89.402303,-115.914263,-0.541696212,-0.904248717,0,0.575048,0,0
4.8,1441013.053,6143700.073,938960.883,274.8565066,-74.60716036,-34.47079231,-54.13220974,-90.35039331,0,57.459941,0,0,380.92546,-11.980418,-145.894025,-0.541322196,-0.903503966,0,0.574599,0,0
4.81,1441015.802,6143699.326,938960.5382,274.8514157,-74.63774113,-34.4756613,-54.09473926,-90.27608557,0,57.414995,0,0,380.925341,69.236223,-128.975389,-0.54094818,-0.902759215,0,0.57415,0,0
4.82,1441018.55,6143698.58,938960.1934,274.8464552,-74.66832439,-34.48054099,-54.06051026,-90.20478635,0,57.369985,0,0,380.925223,128.182885,-70.690612,-0.540603692,-0.902047273,0,0.5737,0,0
4.83,1441021.299,6143697.833,938959.8486,274.8416252,-74.69890996,-34.48543133,-54.03974582,-90.14584278,0,57.324912,0,0,380.925105,146.026496,10.197358,-0.540396999,-0.901460003,0,0.573249,0,0
4.84,1441024.047,6143697.085,938959.5037,274.8369257,-74.72949761,-34.4903323,-54.01898139,-90.08692545,0,57.279775,0,0,380.924987,117.1517,87.766237,-0.540190306,-0.900869451,0,0.572798,0,0
4.85,1441026.795,6143696.338,938959.1587,274.8323568,-74.76008715,-34.49524385,-53.99822023,-90.02804094,0,57.234575,0,0,380.92487,50.884532,137.251255,-0.539983613,-0.9002789,0,0.572346,0,0
4.86,1441029.544,6143695.59,938958.8137,274.8279182,-74.79067836,-34.50016595,-53.97746236,-89.96917939,0,57.189311,0,0,380.924753,-31.560587,142.936285,-0.539773639,-0.89969163,0,0.571893,0,0
4.87,1441032.292,6143694.842,938958.4687,274.8236102,-74.82127103,-34.50509857,-53.95670776,-89.91035065,0,57.143984,0,0,380.924636,-103.898557,103.109901,-0.539566946,-0.899104359,0,0.57144,0,0
4.88,1441035.04,6143694.093,938958.1236,274.8194325,-74.85186495,-34.51004165,-53.93595317,-89.85154815,0,57.098595,0,0,380.924519,-143.156845,30.535054,-0.539360253,-0.898517089,0,0.570986,0,0
4.89,1441037.788,6143693.344,938957.7784,274.8153853,-74.88245992,-34.51499518,-53.91520514,-89.79277518,0,57.053143,0,0,380.924402,-136.949774,-51.679213,-0.539153561,-0.897926538,0,0.570531,0,0
4.9,1441040.536,6143692.595,938957.4332,274.8114686,-74.91305573,-34.5199591,-53.89445711,-89.73403174,0,57.007628,0,0,380.924286,-87.347406,-117.456897,-0.538943587,-0.897339268,0,0.570076,0,0
4.91,1441043.284,6143691.846,938957.088,274.8076822,-74.94365217,-34.52493339,-53.87370907,-89.67531455,0,56.962051,0,0,380.92417,-10.143172,-146.022322,-0.538736894,-0.896751997,0,0.569621,0,0
4.92,1441046.032,6143691.096,938956.7427,274.8040263,-74.97424906,-34.52991802,-53.8529676,-89.61662688,0,56.916412,0,0,380.924054,70.209551,-128.435711,-0.538530201,-0.896164727,0,0.569164,0,0
4.93,1441048.78,6143690.346,938956.3973,274.8005008,-75.00484618,-34.53491294,-53.83222941,-89.55796875,0,56.870711,0,0,380.923939,128.35788,-70.349685,-0.538323508,-0.895580737,0,0.568707,0,0
4.94,1441051.528,6143689.596,938956.0519,274.7971057,-75.03544333,-34.53991813,-53.81149122,-89.49933685,0,56.824948,0,0,380.923823,146.039441,9.849665,-0.538113534,-0.894993467,0,0.568249,0,0
4.95,1441054.276,6143688.845,938955.7065,274.7938411,-75.0660403,-34.54493354,-53.79075631,-89.44073449,0,56.779124,0,0,380.923708,117.78706,86.893347,-0.537906841,-0.894406197,0,0.567791,0,0
4.96,1441057.024,6143688.094,938955.361,274.7907069,-75.09663689,-34.54995914,-53.77002469,-89.38216165,0,56.733238,0,0,380.923593,52.576118,136.600543,-0.537700148,-0.893822207,0,0.567332,0,0
4.97,1441059.772,6143687.343,938955.0154,274.787703,-75.12723288,-34.55499489,-53.74929634,-89.32361834,0,56.68729,0,0,380.923479,-29.067353,143.452977,-0.537493456,-0.893234937,0,0.566873,0,0
4.98,1441062.52,6143686.591,938954.6698,274.7848294,-75.15782807,-34.56004075,-53.72857127,-89.26510128,0,56.641282,0,0,380.923364,-101.553842,105.404916,-0.537286763,-0.892650947,0,0.566413,0,0
4.99,1441065.268,6143685.839,938954.3242,274.7820862,-75.18842226,-34.56509669,-53.70784949,-89.20661703,0,56.595213,0,0,380.92325,-142.254527,34.449097,-0.53708007,-0.892066958,0,0.565952,0,0
5,1441068.016,6143685.087,938953.9785,274.7794733,-75.21901522,-34.57016266,-53.6871277,-89.14815902,0,56.549083,0,0,380.923136,-138.545338,-47.201608,-0.536870096,-0.891482968,0,0.565491,0,0
5.01,1441070.763,6143684.335,938953.6327,274.7769907,-75.24960677,-34.57523863,-53.66641248,-89.08973054,0,56.502892,0,0,380.923023,-91.684737,-114.089541,-0.536663403,-0.890895698,0,0.565029,0,0
5.02,1441073.511,6143683.582,938953.2869,274.7746384,-75.28019672,-34.58032458,-53.64570054,-89.03132831,0,56.456641,0,0,380.922909,-16.346241,-145.447677,-0.53645671,-0.890311708,0,0.564566,0,0
5.03,1441076.259,6143682.829,938952.9411,274.7724164,-75.31078486,-34.58542047,-53.62498859,-88.97295888,0,56.41033,0,0,380.922796,64.011626,-131.622378,-0.536250017,-0.889731,0,0.564103,0,0
5.04,1441079.006,6143682.075,938952.5952,274.7703247,-75.34137098,-34.59052626,-53.60428321,-88.91461899,0,56.363959,0,0,380.922683,124.466346,-77.005063,-0.536043324,-0.88914701,0,0.56364,0,0
5.05,1441081.754,6143681.322,938952.2492,274.7683633,-75.37195488,-34.5956419,-53.58358111,-88.85630534,0,56.317528,0,0,380.92257,146.35365,1.404522,-0.535836631,-0.888563021,0,0.563175,0,0
5.06,1441084.502,6143680.568,938951.9032,274.7665321,-75.40253635,-34.60076737,-53.56287901,-88.79802121,0,56.271037,0,0,380.922458,123.000752,79.321442,-0.535629938,-0.887979031,0,0.56271,0,0
5.07,1441087.249,6143679.813,938951.5571,274.7648312,-75.43311519,-34.60590263,-53.54218347,-88.73976662,0,56.224487,0,0,380.922345,61.718699,132.70867,-0.535423245,-0.887398322,0,0.562245,0,0
5.08,1441089.997,6143679.059,938951.211,274.7632604,-75.4636912,-34.61104764,-53.52149121,-88.68154155,0,56.177878,0,0,380.922233,-18.527346,145.180024,-0.535213272,-0.886814333,0,0.561779,0,0
5.09,1441092.745,6143678.304,938950.8649,274.7618197,-75.49426415,-34.61620236,-53.50079896,-88.62334601,0,56.131209,0,0,380.922122,-93.015521,112.997026,-0.535006579,-0.886233624,0,0.561312,0,0
5.1,1441095.492,6143677.548,938950.5186,274.7605092,-75.52483386,-34.62136675,-53.48011326,-88.56518,0,56.084481,0,0,380.92201,-138.890068,46.146259,-0.534799886,-0.885652915,0,0.560845,0,0
5.11,1441098.24,6143676.793,938950.1724,274.7593288,-75.55540011,-34.62654077,-53.45943084,-88.50704351,0,56.037695,0,0,380.921899,-142.157282,-34.798691,-0.534593193,-0.885068926,0,0.560377,0,0
5.12,1441100.987,6143676.037,938949.8261,274.7582785,-75.58596272,-34.6317244,-53.43875171,-88.44893656,0,55.99085,0,0,380.921788,-101.918646,-105.033066,-0.5343865,-0.884488217,0,0.559909,0,0
5.13,1441103.735,6143675.281,938949.4797,274.7573583,-75.61652148,-34.6369176,-53.41807586,-88.39085913,0,55.943947,0,0,380.921677,-30.57189,-143.123823,-0.534179807,-0.883907509,0,0.559439,0,0
5.14,1441106.483,6143674.524,938949.1333,274.7565681,-75.64707619,-34.64212032,-53.39740328,-88.33280794,0,55.896985,0,0,380.921566,50.045775,-137.528918,-0.533973114,-0.8833268,0,0.55897,0,0
5.15,1441109.23,6143673.768,938948.7868,274.7559079,-75.67762664,-34.64733254,-53.37673727,-88.27478957,0,55.849966,0,0,380.921456,115.361509,-90.056756,-0.533766421,-0.882749372,0,0.5585,0,0
5.16,1441111.978,6143673.011,938948.4403,274.7553777,-75.70817262,-34.65255421,-53.35607126,-88.21680072,0,55.802888,0,0,380.921346,145.553857,-15.240922,-0.533559728,-0.882168663,0,0.558029,0,0
5.17,1441114.725,6143672.253,938948.0937,274.7549775,-75.73871394,-34.65778529,-53.33541181,-88.15883812,0,55.755753,0,0,380.921236,131.542839,64.143642,-0.533353035,-0.881587955,0,0.557558,0,0
5.18,1441117.473,6143671.495,938947.7471,274.7547071,-75.76925039,-34.66302575,-53.31475564,-88.10090833,0,55.70856,0,0,380.921126,77.680796,124.029568,-0.533146343,-0.881010527,0,0.557086,0,0
5.19,1441120.22,6143670.737,938947.4004,274.7545667,-75.79978176,-34.66827555,-53.29410276,-88.04300807,0,55.66131,0,0,380.921017,0.359188,146.346252,-0.53293965,-0.880429818,0,0.556613,0,0
5.2,1441122.968,6143669.979,938947.0536,274.754556,-75.83030786,-34.67353464,-53.27345643,-87.98513733,0,55.614003,0,0,380.920908,-77.011216,124.444132,-0.532732957,-0.87985239,0,0.55614,0,0
5.21,1441125.715,6143669.221,938946.7069,274.7546751,-75.86082847,-34.678803,-53.2528101,-87.92729612,0,55.566639,0,0,380.920799,-131.100215,65.034745,-0.532529545,-0.879271682,0,0.555666,0,0
5.22,1441128.463,6143668.462,938946.36,274.7549241,-75.89134342,-34.6840806,-53.23217034,-87.86948444,0,55.519218,0,0,380.92069,-145.681551,-13.906295,-0.532322852,-0.878694254,0,0.555192,0,0
5.23,1441131.211,6143667.702,938946.0131,274.7553028,-75.9218525,-34.68936738,-53.21153386,-87.81170229,0,55.471741,0,0,380.920582,-116.469196,-88.606664,-0.532116159,-0.878116826,0,0.554717,0,0
5.24,1441133.958,6143666.943,938945.6662,274.7558112,-75.95235551,-34.69466333,-53.19090065,-87.75394966,0,55.424207,0,0,380.920473,-52.334826,-136.663807,-0.531909466,-0.877539398,0,0.554242,0,0
5.25,1441136.706,6143666.183,938945.3192,274.7564494,-75.98285224,-34.69996839,-53.17027401,-87.69622656,0,55.376617,0,0,380.920365,27.425541,-143.747992,-0.531702773,-0.87696197,0,0.553766,0,0
5.26,1441139.453,6143665.423,938944.9721,274.7572172,-76.0133425,-34.70528253,-53.14965065,-87.63853627,0,55.328971,0,0,380.920257,98.922367,-107.84121,-0.53149608,-0.876384542,0,0.55329,0,0
5.27,1441142.201,6143664.662,938944.625,274.7581145,-76.04382607,-34.71060571,-53.12903057,-87.58087223,0,55.281269,0,0,380.92015,140.831617,-39.768491,-0.531289387,-0.875807115,0,0.552813,0,0
5.28,1441144.948,6143663.902,938944.2779,274.7591415,-76.07430277,-34.7159379,-53.10841377,-87.52324099,0,55.233511,0,0,380.920043,140.73572,40.102996,-0.531082694,-0.875232968,0,0.552335,0,0
5.29,1441147.696,6143663.141,938943.9306,274.7602979,-76.10477238,-34.72127905,-53.08780354,-87.46563928,0,55.185698,0,0,380.919936,98.76681,107.97975,-0.530879282,-0.87465554,0,0.551857,0,0
5.3,1441150.444,6143662.379,938943.5834,274.7615838,-76.1352347,-34.72662912,-53.06719658,-87.4080671,0,55.13783,0,0,380.919829,27.49447,143.729884,-0.530672589,-0.874081393,0,0.551378,0,0
5.31,1441153.191,6143661.618,938943.2361,274.7629992,-76.16568954,-34.73198808,-53.04659619,-87.35052445,0,55.089906,0,0,380.919722,-51.874349,136.831991,-0.530465896,-0.873503965,0,0.550899,0,0
5.32,1441155.939,6143660.856,938942.8887,274.7645439,-76.19613671,-34.7373559,-53.02599907,-87.29301132,0,55.041928,0,0,380.919616,-115.824165,89.433894,-0.530259203,-0.872929818,0,0.550419,0,0
5.33,1441158.687,6143660.093,938942.5413,274.7662181,-76.22657601,-34.74273254,-53.00540524,-87.23553101,0,54.993895,0,0,380.91951,-145.494503,15.64369,-0.53005251,-0.872355671,0,0.549939,0,0
5.34,1441161.434,6143659.331,938942.1938,274.7680215,-76.25700723,-34.74811796,-52.98481797,-87.17807694,0,54.945807,0,0,380.919404,-132.217351,-62.702985,-0.529849098,-0.871781524,0,0.549458,0,0
5.35,1441164.182,6143658.568,938941.8462,274.7699543,-76.28743019,-34.75351212,-52.96423398,-87.12065568,0,54.897665,0,0,380.919298,-80.010381,-122.519991,-0.529642405,-0.871207377,0,0.548977,0,0
5.36,1441166.93,6143657.805,938941.4987,274.7720163,-76.31784467,-34.75891498,-52.94365327,-87.06326394,0,54.849468,0,0,380.919193,-4.320854,-146.26639,-0.529435712,-0.87063323,0,0.548495,0,0
5.37,1441169.677,6143657.041,938941.151,274.7742075,-76.34825047,-34.76432651,-52.92307912,-87.00590502,0,54.801218,0,0,380.919087,72.576256,-127.062705,-0.5292323,-0.870059083,0,0.548012,0,0
5.38,1441172.425,6143656.278,938940.8033,274.7765278,-76.37864741,-34.76974666,-52.90250825,-86.94857234,0,54.752914,0,0,380.918983,128.146061,-70.643813,-0.529025607,-0.869484936,0,0.547529,0,0
5.39,1441175.173,6143655.513,938940.4556,274.7789771,-76.40903526,-34.7751754,-52.88194395,-86.89127247,0,54.704556,0,0,380.918878,146.187559,6.393474,-0.528818915,-0.86891407,0,0.547046,0,0
5.4,1441177.921,6143654.749,938940.1078,274.7815555,-76.43941384,-34.78061269,-52.86138293,-86.83400212,0,54.656145,0,0,380.918773,121.527226,81.501719,-0.528612222,-0.868339923,0,0.546561,0,0
5.41,1441180.669,6143653.984,938939.7599,274.7842629,-76.46978295,-34.78605849,-52.84082846,-86.77676131,0,54.60768,0,0,380.918669,61.461621,132.791505,-0.52840881,-0.867769057,0,0.546077,0,0
5.42,1441183.417,6143653.219,938939.412,274.7870992,-76.5001424,-34.79151276,-52.82027728,-86.7195533,0,54.559162,0,0,380.918565,-16.440457,145.397882,-0.528202117,-0.86719491,0,0.545592,0,0
5.43,1441186.164,6143652.454,938939.064,274.7900644,-76.530492,-34.79697548,-52.79973266,-86.66237482,0,54.510592,0,0,380.918461,-89.503472,115.756985,-0.527998705,-0.866624043,0,0.545106,0,0
5.44,1441188.912,6143651.688,938938.716,274.7931585,-76.56083155,-34.80244659,-52.77919132,-86.60522587,0,54.461969,0,0,380.918358,-136.552041,52.571946,-0.527792012,-0.866053177,0,0.54462,0,0
5.45,1441191.66,6143650.923,938938.3679,274.7963813,-76.59116085,-34.80792607,-52.75865654,-86.54810644,0,54.413293,0,0,380.918254,-144.032497,-25.780378,-0.527585319,-0.865482311,0,0.544133,0,0
5.46,1441194.408,6143650.156,938938.0198,274.7997329,-76.62147969,-34.81341388,-52.73812505,-86.49101983,0,54.364565,0,0,380.918151,-109.884212,-96.618666,-0.527381907,-0.864911445,0,0.543646,0,0
5.47,1441197.156,6143649.39,938937.6716,274.8032132,-76.65178789,-34.81890996,-52.71760011,-86.43396274,0,54.315785,0,0,380.918048,-44.064863,-139.526748,-0.527175214,-0.864340579,0,0.543158,0,0
5.48,1441199.904,6143648.623,938937.3233,274.8068221,-76.68208524,-34.82441429,-52.69707846,-86.37693846,0,54.266953,0,0,380.917946,34.389946,-142.219816,-0.526971802,-0.863769713,0,0.54267,0,0
5.49,1441202.653,6143647.856,938936.975,274.8105595,-76.71237154,-34.82992683,-52.67656337,-86.31994371,0,54.218069,0,0,380.917843,102.894264,-104.027084,-0.526765109,-0.863198847,0,0.542181,0,0
5.5,1441205.401,6143647.088,938936.6267,274.8144254,-76.7426466,-34.83544753,-52.65605483,-86.26297848,0,54.169133,0,0,380.917741,141.815309,-36.0139,-0.526561697,-0.862631261,0,0.541691,0,0
5.51,1441208.149,6143646.321,938936.2783,274.8184198,-76.77291022,-34.84097636,-52.63554958,-86.20604278,0,54.120146,0,0,380.917639,140.080077,42.259609,-0.526355004,-0.862060395,0,0.541201,0,0
5.52,1441210.897,6143645.553,938935.9298,274.8225425,-76.80316222,-34.84651329,-52.6150509,-86.1491399,0,54.071108,0,0,380.917538,98.289933,108.38409,-0.526151592,-0.86149281,0,0.540711,0,0
5.53,1441213.645,6143644.784,938935.5813,274.8267936,-76.8334024,-34.85205827,-52.59455549,-86.09226653,0,54.022019,0,0,380.917436,28.477754,143.515711,-0.525944899,-0.860921944,0,0.54022,0,0
5.54,1441216.394,6143644.016,938935.2327,274.8311729,-76.86363056,-34.85761128,-52.57406664,-86.03542598,0,53.972879,0,0,380.917335,-49.390961,137.724343,-0.525741487,-0.860354358,0,0.539729,0,0
5.55,1441219.142,6143643.247,938934.8841,274.8356805,-76.89384651,-34.86317225,-52.55358436,-85.97861496,0,53.923689,0,0,380.917234,-113.146191,92.763791,-0.525534794,-0.859786773,0,0.539237,0,0
5.56,1441221.89,6143642.478,938934.5354,274.8403162,-76.92405005,-34.86874117,-52.53310536,-85.92183346,0,53.874448,0,0,380.917133,-144.722359,21.502104,-0.525331382,-0.859219188,0,0.538744,0,0
5.57,1441224.639,6143641.708,938934.1867,274.8450799,-76.95424098,-34.87431799,-52.51263291,-85.86508477,0,53.825157,0,0,380.917032,-135.253911,-55.794279,-0.52512797,-0.858651602,0,0.538252,0,0
5.58,1441227.387,6143640.938,938933.8379,274.8499717,-76.98441911,-34.87990266,-52.49216703,-85.80836561,0,53.775815,0,0,380.916932,-87.527173,-117.240507,-0.524921277,-0.858084017,0,0.537758,0,0
5.59,1441230.136,6143640.168,938933.489,274.8549913,-77.01458424,-34.88549516,-52.47170444,-85.75167925,0,53.726424,0,0,380.916832,-15.121456,-145.524585,-0.524717865,-0.857516432,0,0.537264,0,0
5.6,1441232.885,6143639.398,938933.1401,274.8601389,-77.04473618,-34.89109544,-52.4512484,-85.69502243,0,53.676983,0,0,380.916732,61.486234,-132.760036,-0.524511172,-0.856948846,0,0.53677,0,0
5.61,1441235.633,6143638.627,938932.7911,274.8654142,-77.07487473,-34.89670345,-52.43079892,-85.63839841,0,53.627493,0,0,380.916633,120.726856,-82.647027,-0.52430776,-0.856384542,0,0.536275,0,0
5.62,1441238.382,6143637.856,938932.4421,274.8708172,-77.10499972,-34.90231919,-52.41035601,-85.58180392,0,53.577954,0,0,380.916533,146.005474,-9.360956,-0.524104347,-0.855816957,0,0.53578,0,0
5.63,1441241.131,6143637.084,938932.093,274.8763481,-77.13511095,-34.90794259,-52.38991637,-85.52523896,0,53.528365,0,0,380.916434,130.323898,66.487809,-0.523897655,-0.855252652,0,0.535284,0,0
5.64,1441243.879,6143636.313,938931.7439,274.8820065,-77.16520824,-34.91357363,-52.3694833,-85.4687068,0,53.478727,0,0,380.916335,78.179781,123.663213,-0.523694242,-0.854688348,0,0.534787,0,0
5.65,1441246.628,6143635.541,938931.3947,274.8877925,-77.19529138,-34.91921227,-52.34905679,-85.41220746,0,53.429041,0,0,380.916236,4.238133,146.240994,-0.52349083,-0.854120762,0,0.53429,0,0
5.66,1441249.377,6143634.769,938931.0454,274.893706,-77.22536019,-34.92485846,-52.32863356,-85.35573436,0,53.379306,0,0,380.916138,-70.822428,128.016778,-0.523287418,-0.853556458,0,0.533793,0,0
5.67,1441252.126,6143633.996,938930.6961,274.8997469,-77.25541446,-34.93051216,-52.30822018,-85.29929735,0,53.329523,0,0,380.91604,-126.104261,74.172427,-0.523080725,-0.852992153,0,0.533295,0,0
5.68,1441254.875,6143633.223,938930.3468,274.9059151,-77.28545401,-34.93617334,-52.28781007,-85.24288987,0,53.279691,0,0,380.915942,-146.299351,-0.235486,-0.522877313,-0.852427849,0,0.532797,0,0
5.69,1441257.624,6143632.45,938929.9974,274.9122106,-77.31547864,-34.94184196,-52.26740653,-85.18651191,0,53.229812,0,0,380.915844,-125.900341,-74.514304,-0.522673901,-0.851863544,0,0.532298,0,0
5.7,1441260.374,6143631.677,938929.6479,274.9186333,-77.34548815,-34.94751798,-52.24700627,-85.13016677,0,53.179885,0,0,380.915746,-70.663593,-128.100181,-0.522470489,-0.851302521,0,0.531799,0,0
5.71,1441263.123,6143630.903,938929.2984,274.925183,-77.37548236,-34.95320135,-52.22661584,-85.07385443,0,53.12991,0,0,380.915649,4.052893,-146.240542,-0.522267077,-0.850738216,0,0.531299,0,0
5.72,1441265.872,6143630.129,938928.9488,274.9318598,-77.40546109,-34.95889204,-52.2062287,-85.01756834,0,53.079888,0,0,380.915552,77.587006,-124.027018,-0.522063665,-0.850177193,0,0.530799,0,0
5.73,1441268.622,6143629.354,938928.5991,274.9386635,-77.43542413,-34.96459002,-52.18585141,-84.96131834,0,53.029819,0,0,380.915455,129.695675,-67.684557,-0.521856972,-0.849612888,0,0.530298,0,0
5.74,1441271.371,6143628.58,938928.2494,274.9455941,-77.46537131,-34.97029524,-52.16547739,-84.90509786,0,52.979703,0,0,380.915359,146.116057,7.210279,-0.52165356,-0.849051864,0,0.529797,0,0
5.75,1441274.121,6143627.805,938927.8997,274.9526515,-77.49530243,-34.97600766,-52.14510994,-84.8489102,0,52.92954,0,0,380.915262,122.440401,80.062234,-0.521450148,-0.84848756,0,0.529295,0,0
5.76,1441276.87,6143627.03,938927.5498,274.9598356,-77.52521729,-34.98172725,-52.12474904,-84.79275206,0,52.87933,0,0,380.915166,65.26018,130.929161,-0.521246736,-0.847926536,0,0.528793,0,0
5.77,1441279.62,6143626.254,938927.2,274.9671463,-77.5551157,-34.98745396,-52.10439143,-84.73662673,0,52.829074,0,0,380.91507,-9.705897,145.968679,-0.521043324,-0.847365513,0,0.528291,0,0
5.78,1441282.37,6143625.478,938926.85,274.9745836,-77.58499748,-34.99318775,-52.08404366,-84.68053093,0,52.778772,0,0,380.914974,-81.958803,121.175648,-0.520839912,-0.846804489,0,0.527788,0,0
5.79,1441285.119,6143624.702,938926.5,274.9821472,-77.61486243,-34.99892859,-52.06370245,-84.62446793,0,52.728424,0,0,380.914879,-131.832147,63.409712,-0.5206365,-0.846243465,0,0.527284,0,0
5.8,1441287.869,6143623.926,938926.15,274.9898373,-77.64471036,-35.00467643,-52.04336453,-84.56843446,0,52.67803,0,0,380.914784,-145.832368,-11.539099,-0.520433088,-0.845685723,0,0.52678,0,0
5.81,1441290.619,6143623.149,938925.7999,274.9976536,-77.67454108,-35.01043124,-52.02303644,-84.51243381,0,52.62759,0,0,380.914689,-120.259833,-83.291816,-0.520229675,-0.845124699,0,0.526276,0,0
5.82,1441293.369,6143622.372,938925.4497,275.0055961,-77.70435443,-35.01619298,-52.00271164,-84.45646596,0,52.577105,0,0,380.914594,-62.147471,-132.428735,-0.520026263,-0.844563675,0,0.525771,0,0
5.83,1441296.119,6143621.594,938925.0995,275.0136649,-77.73415022,-35.02196162,-51.9823934,-84.40052764,0,52.526574,0,0,380.914499,12.70958,-145.732182,-0.519822851,-0.844005933,0,0.525266,0,0
5.84,1441298.87,6143620.817,938924.7492,275.0218597,-77.76392825,-35.02773712,-51.962085,-84.34462212,0,52.475999,0,0,380.914405,84.072027,-119.712242,-0.519619439,-0.843444909,0,0.52476,0,0
5.85,1441301.62,6143620.039,938924.3989,275.0301805,-77.79368835,-35.03351943,-51.94177988,-84.28874942,0,52.425379,0,0,380.914311,132.735255,-61.483356,-0.519419308,-0.842887166,0,0.524254,0,0
5.86,1441304.37,6143619.261,938924.0485,275.0386271,-77.82343031,-35.03930851,-51.92148132,-84.23290624,0,52.374714,0,0,380.914217,145.684219,13.216803,-0.519215896,-0.842329423,0,0.523747,0,0
5.87,1441307.121,6143618.482,938923.6981,275.0471996,-77.85315395,-35.04510433,-51.90118932,-84.17709587,0,52.324004,0,0,380.914123,119.544569,84.305376,-0.519012484,-0.84177168,0,0.52324,0,0
5.88,1441309.871,6143617.703,938923.3475,275.0558977,-77.88285909,-35.05090685,-51.88090717,-84.12131503,0,52.27325,0,0,380.91403,61.423198,132.759994,-0.518809072,-0.841213938,0,0.522733,0,0
5.89,1441312.622,6143616.924,938922.997,275.0647215,-77.91254552,-35.05671602,-51.8606283,-84.06556699,0,52.222453,0,0,380.913937,-13.059637,145.695559,-0.51860566,-0.840656195,0,0.522225,0,0
5.9,1441315.373,6143616.145,938922.6463,275.0736708,-77.94221308,-35.06253181,-51.84035599,-84.00985177,0,52.171611,0,0,380.913844,-83.992699,119.76102,-0.518402248,-0.840098452,0,0.521716,0,0
5.91,1441318.124,6143615.365,938922.2957,275.0827454,-77.97186156,-35.06835418,-51.82009352,-83.95416607,0,52.120725,0,0,380.913751,-132.50303,61.968926,-0.518202116,-0.839540709,0,0.521207,0,0
5.92,1441320.875,6143614.585,938921.9449,275.0919454,-78.00149079,-35.07418308,-51.79983433,-83.89851318,0,52.069797,0,0,380.913658,-145.764199,-12.236188,-0.517998704,-0.838986247,0,0.520698,0,0
5.93,1441323.626,6143613.805,938921.5941,275.1012707,-78.0311006,-35.08001849,-51.77958499,-83.8428931,0,52.018824,0,0,380.913566,-120.358295,-83.129612,-0.517795292,-0.838428505,0,0.520188,0,0
5.94,1441326.377,6143613.024,938921.2433,275.1107211,-78.0606908,-35.08586037,-51.75933893,-83.78730583,0,51.967809,0,0,380.913474,-63.118557,-131.956149,-0.51759188,-0.837874043,0,0.519678,0,0
5.95,1441329.128,6143612.243,938920.8923,275.1202966,-78.09026119,-35.09170866,-51.73910271,-83.73174809,0,51.916751,0,0,380.913382,10.743848,-145.878967,-0.517391749,-0.8373163,0,0.519168,0,0
5.96,1441331.879,6143611.462,938920.5414,275.1299971,-78.11981159,-35.09756334,-51.71886977,-83.67622315,0,51.86565,0,0,380.913291,81.706565,-121.325457,-0.517188337,-0.836761838,0,0.518657,0,0
5.97,1441334.631,6143610.68,938920.1903,275.1398223,-78.14934181,-35.10342436,-51.69864667,-83.62072774,0,51.814507,0,0,380.913199,131.102857,-64.865987,-0.516984925,-0.836207376,0,0.518145,0,0
5.98,1441337.382,6143609.899,938919.8392,275.1497724,-78.17885168,-35.10929168,-51.67843013,-83.56526514,0,51.763321,0,0,380.913108,146.019428,8.579542,-0.516784793,-0.835652914,0,0.517633,0,0
5.99,1441340.134,6143609.117,938919.4881,275.1598471,-78.208341,-35.11516526,-51.65822016,-83.50983535,0,51.712093,0,0,380.913017,122.643681,79.709069,-0.516581381,-0.835098452,0,0.517121,0,0
6,1441342.885,6143608.334,938919.1369,275.1700463,-78.23780959,-35.12104507,-51.63801674,-83.45443837,0,51.660824,0,0,380.912927,67.200598,129.918492,-0.51638125,-0.83454399,0,0.516608,0,0
6.01,1441345.637,6143607.551,938918.7856,275.1803699,-78.26725726,-35.12693105,-51.61782317,-83.39907419,0,51.609512,0,0,380.912836,-5.7402,146.155779,-0.516177838,-0.833989528,0,0.516095,0,0
6.02,1441348.389,6143606.769,938918.4343,275.1908179,-78.29668385,-35.13282318,-51.59763288,-83.34373954,0,51.558159,0,0,380.912746,-77.118116,124.285899,-0.515977707,-0.833438347,0,0.515582,0,0
6.03,1441351.141,6143605.985,938918.0829,275.2013902,-78.32608917,-35.13872143,-51.57745244,-83.2884377,0,51.506765,0,0,380.912656,-128.370439,70.106675,-0.515774295,-0.832883885,0,0.515068,0,0
6.04,1441353.893,6143605.202,938917.7315,275.2120866,-78.35547304,-35.14462574,-51.55727855,-83.23316539,0,51.45533,0,0,380.912566,-146.248757,-2.223447,-0.515574163,-0.832332704,0,0.514553,0,0
6.05,1441356.645,6143604.418,938917.3799,275.2229071,-78.38483528,-35.15053607,-51.53711123,-83.17792589,0,51.403853,0,0,380.912477,-126.216338,-73.910798,-0.515370751,-0.831778242,0,0.514039,0,0
6.06,1441359.398,6143603.634,938917.0284,275.2338516,-78.4141757,-35.1564524,-51.51695047,-83.12272248,0,51.352336,0,0,380.912387,-73.562646,-126.41849,-0.51517062,-0.831227061,0,0.513523,0,0
6.07,1441362.15,6143602.849,938916.6768,275.2449198,-78.44349411,-35.16237467,-51.49679627,-83.06754531,0,51.300779,0,0,380.912298,-1.97149,-146.249576,-0.514967208,-0.83067588,0,0.513008,0,0
6.08,1441364.903,6143602.065,938916.3251,275.2561118,-78.47279035,-35.16830285,-51.47665191,-83.01240423,0,51.249181,0,0,380.912209,70.061134,-128.389993,-0.514767077,-0.830124698,0,0.512492,0,0
6.09,1441367.655,6143601.28,938915.9733,275.2674273,-78.50206422,-35.17423689,-51.45651083,-82.95729596,0,51.197543,0,0,380.912121,124.015346,-77.540149,-0.514563665,-0.829573517,0,0.511975,0,0
6.1,1441370.408,6143600.494,938915.6215,275.2788664,-78.53131554,-35.18017676,-51.4363796,-82.90221722,0,51.145865,0,0,380.912032,146.099921,-6.842645,-0.514363534,-0.829022336,0,0.511459,0,0
6.11,1441373.161,6143599.709,938915.2697,275.2904288,-78.56054413,-35.18612242,-51.41625821,-82.84717129,0,51.094147,0,0,380.911944,130.752042,65.541136,-0.514163402,-0.828471155,0,0.510941,0,0
6.12,1441375.914,6143598.923,938914.9177,275.3021146,-78.58974983,-35.19207383,-51.3961401,-82.79215488,0,51.04239,0,0,380.911856,82.002946,121.107317,-0.51395999,-0.827919974,0,0.510424,0,0
6.13,1441378.667,6143598.137,938914.5658,275.3139235,-78.61893246,-35.19803095,-51.37603183,-82.73717456,0,50.990594,0,0,380.911768,12.383949,145.732054,-0.513759859,-0.827372074,0,0.509906,0,0
6.14,1441381.421,6143597.35,938914.2137,275.3258556,-78.64809184,-35.20399375,-51.35593012,-82.68222377,0,50.938758,0,0,380.911681,-60.322117,133.237249,-0.513559728,-0.826820893,0,0.509388,0,0
6.15,1441384.174,6143596.563,938913.8616,275.3379106,-78.67722779,-35.20996218,-51.33583498,-82.62730579,0,50.886884,0,0,380.911593,-117.635232,86.905715,-0.513359596,-0.826272992,0,0.508869,0,0
6.16,1441386.927,6143595.776,938913.5095,275.3500885,-78.70634013,-35.21593621,-51.31574967,-82.57242062,0,50.83497,0,0,380.911506,-145.069046,18.583652,-0.513156184,-0.825725092,0,0.50835,0,0
6.17,1441389.681,6143594.989,938913.1573,275.3623891,-78.73542867,-35.22191579,-51.29567093,-82.51756826,0,50.783018,0,0,380.911419,-135.769398,-54.376278,-0.512956053,-0.825177192,0,0.50783,0,0
6.18,1441392.435,6143594.201,938912.805,275.3748123,-78.76449324,-35.22790088,-51.27559875,-82.4627487,0,50.731028,0,0,380.911333,-92.192736,-113.535624,-0.512755922,-0.824626011,0,0.50731,0,0
6.19,1441395.189,6143593.413,938912.4526,275.387358,-78.79353367,-35.23389144,-51.25553314,-82.40795867,0,50.679,0,0,380.911246,-25.422534,-144.025215,-0.512555791,-0.82407811,0,0.50679,0,0
