missiontime,ecef_Pos_X,ecef_Pos_Y,ecef_Pos_Z,ecef_Vel_X,ecef_Vel_Y,ecef_Vel_Z,gps_week,gps_tow,Acc_X,Acc_Y,Acc_Z,Gyro_p, Gyro_q, Gyro_r, Roll, Pitch, Yaw, rollRPS,bmx,bmy,bmz,deltaVx,deltaVy,deltaVz,deltaThetaX,deltaThetaY,deltaThetaZ
0,-1187924.386,-6195202.745,939686.9021,-487.317513,-98.07021,638.558312,2384,388837,0,0,0,69.115038,0,0,0,0.436332,0,11,381.012754,146.396251,-12.541436,0,0,0,0.69115,0,0
0.01,-1187924.386,-6195202.745,939686.9021,-487.317513,-98.07021,638.558312,2384,388837,-18.479911,-35.748416,0.000001,69.114984,0,0,0,0.436332,0,10.999991,381.012532,120.793549,83.65248,-0.184799,-0.357484,0,0.69115,0,0
0.02,-1187924.386,-6195202.745,939686.9021,-487.317513,-98.07021,638.558312,2384,388837,-18.463867,-35.713963,0.000001,69.11482,0,0,0,0.436332,0,10.999965,381.012311,39.750725,141.450938,-0.184639,-0.35714,0,0.691148,0,0
0.03,-1187924.386,-6195202.745,939686.9021,-487.317513,-98.07021,638.558312,2384,388837,-18.447847,-35.679559,0.000001,69.114548,0,0,0,0.436332,0,10.999922,381.012091,-59.534993,134.326997,-0.184478,-0.356796,0,0.691145,0,0
0.04,-1187924.386,-6195202.745,939686.9021,-487.317513,-98.07021,638.558312,2384,388837,-18.431851,-35.645204,0.000001,69.114166,0,0,0,0.436332,0,10.999861,381.011871,-131.494414,65.55186,-0.184319,-0.356452,0,0.691142,0,0
0.05,-1187924.386,-6195202.745,939686.9021,-487.317513,-98.07021,638.558312,2384,388837,-18.415877,-35.610898,0.000001,69.113676,0,0,0,0.436332,0,10.999783,381.011651,-143.101717,-33.307593,-0.184159,-0.356109,0,0.691137,0,0
0.06,-1187924.386,-6195202.745,939686.9021,-487.317513,-98.07021,638.558312,2384,388837,-18.399927,-35.57664,0.000001,69.113076,0,0,0,0.436332,0,10.999688,381.011431,-89.031638,-116.878289,-0.183999,-0.355766,0,0.691131,0,0
0.07,-1187924.386,-6195202.745,939686.9021,-487.317513,-98.07021,638.558312,2384,388837,-18.384001,-35.54243,0.000001,69.112368,0,0,0,0.436332,0,10.999575,381.011211,5.898022,-146.806167,-0.18384,-0.355424,0,0.691124,0,0
0.08,-1187924.386,-6195202.745,939686.9021,-487.317513,-98.07021,638.558312,2384,388837,-18.368097,-35.508269,0.000001,69.11155,0,0,0,0.436332,0,10.999445,381.010992,98.118591,-109.358356,-0.183681,-0.355083,0,0.691116,0,0
0.09,-1187924.386,-6195202.745,939686.9021,-487.317513,-98.07021,638.558312,2384,388837,-18.352217,-35.474156,0.000001,69.110624,0,0,0,0.436332,0,10.999297,381.010773,145.307443,-21.723842,-0.183522,-0.354742,0,0.691106,0,0
0.1,-1187927.923,-6195221.118,939750.5827,-486.950157,-96.151011,635.059198,2384,388837,-18.336359,-35.440092,0.000001,69.109588,0,0,0,0.436332,0,10.999133,381.010555,125.811009,75.877791,-0.183364,-0.354401,0,0.691096,0,0
0.11,-1187927.923,-6195221.118,939750.5827,-486.950157,-96.151011,635.059198,2384,388837,-18.320525,-35.406076,0.000001,69.108444,0,0,0,0.436332,0,10.99895,381.010337,48.579932,138.656087,-0.183205,-0.354061,0,0.691084,0,0
0.12,-1187927.923,-6195221.118,939750.5827,-486.950157,-96.151011,635.059198,2384,388837,-18.304714,-35.372108,0.000001,69.10719,0,0,0,0.436332,0,10.998751,381.010119,-50.941739,137.804683,-0.183047,-0.353721,0,0.691072,0,0
0.13,-1187927.923,-6195221.118,939750.5827,-486.950157,-96.151011,635.059198,2384,388837,-18.288926,-35.338188,0.000001,69.105828,0,0,0,0.436332,0,10.998534,381.009901,-127.084532,73.718279,-0.182889,-0.353382,0,0.691058,0,0
0.14,-1187927.923,-6195221.118,939750.5827,-486.950157,-96.151011,635.059198,2384,388837,-18.273161,-35.304316,0.000001,69.104356,0,0,0,0.436332,0,10.9983,381.009684,-144.911244,-24.192267,-0.182732,-0.353043,0,0.691044,0,0
0.15,-1187927.923,-6195221.118,939750.5827,-486.950157,-96.151011,635.059198,2384,388837,-18.257419,-35.270491,0.000001,69.102776,0,0,0,0.436332,0,10.998048,381.009467,-96.246444,-110.999227,-0.182574,-0.352705,0,0.691028,0,0
0.16,-1187927.923,-6195221.118,939750.5827,-486.950157,-96.151011,635.059198,2384,388837,-18.2417,-35.236715,0.000001,69.101087,0,0,0,0.436332,0,10.99778,381.00925,-3.423596,-146.874631,-0.182417,-0.352367,0,0.691011,0,0
0.17,-1187927.923,-6195221.118,939750.5827,-486.950157,-96.151011,635.059198,2384,388837,-18.226004,-35.202986,0.000001,69.099288,0,0,0,0.436332,0,10.997493,381.009033,90.966685,-115.36296,-0.18226,-0.35203,0,0.690993,0,0
0.18,-1187927.923,-6195221.118,939750.5827,-486.950157,-96.151011,635.059198,2384,388837,-18.210331,-35.169305,0.000001,69.097381,0,0,0,0.436332,0,10.99719,381.008817,143.62019,-30.926748,-0.182103,-0.351693,0,0.690974,0,0
0.19,-1187927.923,-6195221.118,939750.5827,-486.950157,-96.151011,635.059198,2384,388837,-18.19468,-35.135672,0.000001,69.095365,0,0,0,0.436332,0,10.996869,381.008601,130.385686,67.693931,-0.181947,-0.351357,0,0.690954,0,0
0.2,-1187931.423,-6195239.3,939813.9151,-486.585615,-94.246531,631.594649,2384,388837,-18.179052,-35.102086,0.000001,69.09324,0,0,0,0.436332,0,10.996531,381.008386,57.340358,135.257722,-0.181791,-0.351021,0,0.690932,0,0
0.21,-1187931.423,-6195239.3,939813.9151,-486.585615,-94.246531,631.594649,2384,388837,-18.163448,-35.068547,0.000001,69.091006,0,0,0,0.436332,0,10.996175,381.00817,-42.003986,140.776085,-0.181634,-0.350685,0,0.69091,0,0
0.22,-1187931.423,-6195239.3,939813.9151,-486.585615,-94.246531,631.594649,2384,388837,-18.147865,-35.035056,0.000001,69.088663,0,0,0,0.436332,0,10.995802,381.007955,-122.078108,81.72423,-0.181479,-0.350351,0,0.690887,0,0
0.23,-1187931.423,-6195239.3,939813.9151,-486.585615,-94.246531,631.594649,2384,388837,-18.132306,-35.001612,0.000001,69.086211,0,0,0,0.436332,0,10.995412,381.007741,-146.15859,-14.80723,-0.181323,-0.350016,0,0.690862,0,0
0.24,-1187931.423,-6195239.3,939813.9151,-486.585615,-94.246531,631.594649,2384,388837,-18.116769,-34.968215,0.000001,69.08365,0,0,0,0.436332,0,10.995004,381.007526,-103.208022,-104.543604,-0.181168,-0.349682,0,0.690837,0,0
0.25,-1187931.423,-6195239.3,939813.9151,-486.585615,-94.246531,631.594649,2384,388837,-18.101255,-34.934866,0.000001,69.080981,0,0,0,0.436332,0,10.99458,381.007312,-12.930403,-146.334341,-0.181013,-0.349349,0,0.69081,0,0
0.26,-1187931.423,-6195239.3,939813.9151,-486.585615,-94.246531,631.594649,2384,388837,-18.085764,-34.901563,0.000001,69.078202,0,0,0,0.436332,0,10.994137,381.007098,83.272113,-121.022162,-0.180858,-0.349016,0,0.690782,0,0
0.27,-1187931.423,-6195239.3,939813.9151,-486.585615,-94.246531,631.594649,2384,388837,-18.070295,-34.868307,0.000001,69.075315,0,0,0,0.436332,0,10.993678,381.006885,141.288816,-40.221302,-0.180703,-0.348683,0,0.690753,0,0
0.28,-1187931.423,-6195239.3,939813.9151,-486.585615,-94.246531,631.594649,2384,388837,-18.054848,-34.835098,0.000001,69.072319,0,0,0,0.436332,0,10.993201,381.006672,134.525374,59.015936,-0.180548,-0.348351,0,0.690723,0,0
0.29,-1187931.423,-6195239.3,939813.9151,-486.585615,-94.246531,631.594649,2384,388837,-18.039424,-34.801936,0.000001,69.069214,0,0,0,0.436332,0,10.992707,381.006459,66.090981,131.19304,-0.180394,-0.348019,0,0.690692,0,0
0.3,-1187934.887,-6195257.293,939876.9028,-486.223849,-92.35656,628.164182,2384,388837,-18.024023,-34.768821,0.000001,69.066,0,0,0,0.436332,0,10.992195,381.006246,-32.635716,143.227847,-0.18024,-0.347688,0,0.69066,0,0
0.31,-1187934.887,-6195257.293,939876.9028,-486.223849,-92.35656,628.164182,2384,388837,-18.008644,-34.735752,0.000001,69.062677,0,0,0,0.436332,0,10.991666,381.006034,-116.398296,89.612598,-0.180086,-0.347358,0,0.690627,0,0
0.32,-1187934.887,-6195257.293,939876.9028,-486.223849,-92.35656,628.164182,2384,388837,-17.993288,-34.70273,0.000001,69.059245,0,0,0,0.436332,0,10.99112,381.005822,-146.809219,-5.070442,-0.179933,-0.347027,0,0.690592,0,0
0.33,-1187934.887,-6195257.293,939876.9028,-486.223849,-92.35656,628.164182,2384,388837,-17.977953,-34.669755,0.000001,69.055705,0,0,0,0.436332,0,10.990557,381.00561,-109.939986,-97.424487,-0.17978,-0.346698,0,0.690557,0,0
0.34,-1187934.887,-6195257.293,939876.9028,-486.223849,-92.35656,628.164182,2384,388837,-17.962642,-34.636825,0.000001,69.052056,0,0,0,0.436332,0,10.989976,381.005399,-22.695476,-145.130707,-0.179626,-0.346368,0,0.690521,0,0
0.35,-1187934.887,-6195257.293,939876.9028,-486.223849,-92.35656,628.164182,2384,388837,-17.947352,-34.603943,0.000001,69.048298,0,0,0,0.436332,0,10.989378,381.005187,74.942491,-126.33806,-0.179474,-0.346039,0,0.690483,0,0
0.36,-1187934.887,-6195257.293,939876.9028,-486.223849,-92.35656,628.164182,2384,388837,-17.932085,-34.571106,0.000001,69.044432,0,0,0,0.436332,0,10.988763,381.004977,138.240929,-49.666928,-0.179321,-0.345711,0,0.690444,0,0
0.37,-1187934.887,-6195257.293,939876.9028,-486.223849,-92.35656,628.164182,2384,388837,-17.91684,-34.538315,0.000001,69.040456,0,0,0,0.436332,0,10.98813,381.004766,138.20949,49.751091,-0.179168,-0.345383,0,0.690405,0,0
0.38,-1187934.887,-6195257.293,939876.9028,-486.223849,-92.35656,628.164182,2384,388837,-17.901617,-34.505571,0.000001,69.036372,0,0,0,0.436332,0,10.98748,381.004556,74.873434,126.375152,-0.179016,-0.345056,0,0.690364,0,0
0.39,-1187934.887,-6195257.293,939876.9028,-486.223849,-92.35656,628.164182,2384,388837,-17.886417,-34.472873,0.000001,69.032179,0,0,0,0.436332,0,10.986813,381.004346,-22.749238,145.116708,-0.178864,-0.344729,0,0.690322,0,0
0.4,-1187938.315,-6195275.097,939939.5491,-485.864818,-90.48089,624.767322,2384,388837,-17.871238,-34.44022,0.000001,69.027878,0,0,0,0.436332,0,10.986128,381.004136,-109.947951,97.403857,-0.178712,-0.344402,0,0.690279,0,0
0.41,-1187938.315,-6195275.097,939939.5491,-485.864818,-90.48089,624.767322,2384,388837,-17.856082,-34.407614,0.000001,69.023468,0,0,0,0.436332,0,10.985426,381.003927,-146.798421,5.095437,-0.178561,-0.344076,0,0.690235,0,0
0.42,-1187938.315,-6195275.097,939939.5491,-485.864818,-90.48089,624.767322,2384,388837,-17.840948,-34.375053,0.000001,69.018949,0,0,0,0.436332,0,10.984707,381.003717,-116.439264,-89.539459,-0.178409,-0.343751,0,0.690189,0,0
0.43,-1187938.315,-6195275.097,939939.5491,-485.864818,-90.48089,624.767322,2384,388837,-17.825836,-34.342538,0.000001,69.014322,0,0,0,0.436332,0,10.98397,381.003509,-32.780768,-143.18001,-0.178258,-0.343425,0,0.690143,0,0
0.44,-1187938.315,-6195275.097,939939.5491,-485.864818,-90.48089,624.767322,2384,388837,-17.810745,-34.310069,0.000001,69.009586,0,0,0,0.436332,0,10.983217,381.0033,65.875655,-131.282784,-0.178107,-0.343101,0,0.690096,0,0
0.45,-1187938.315,-6195275.097,939939.5491,-485.864818,-90.48089,624.767322,2384,388837,-17.795677,-34.277646,0.000001,69.004741,0,0,0,0.436332,0,10.982446,381.003092,134.377382,-59.305716,-0.177957,-0.342776,0,0.690047,0,0
0.46,-1187938.315,-6195275.097,939939.5491,-485.864818,-90.48089,624.767322,2384,388837,-17.780631,-34.245267,0.000001,68.999788,0,0,0,0.436332,0,10.981657,381.002884,141.385377,39.803289,-0.177806,-0.342453,0,0.689998,0,0
0.47,-1187938.315,-6195275.097,939939.5491,-485.864818,-90.48089,624.767322,2384,388837,-17.765607,-34.212935,0.000001,68.994726,0,0,0,0.436332,0,10.980852,381.002676,83.706284,120.694086,-0.177656,-0.342129,0,0.689947,0,0
0.48,-1187938.315,-6195275.097,939939.5491,-485.864818,-90.48089,624.767322,2384,388837,-17.750604,-34.180647,0.000001,68.989556,0,0,0,0.436332,0,10.980029,381.002469,-12.260304,146.366552,-0.177506,-0.341806,0,0.689896,0,0
0.49,-1187938.315,-6195275.097,939939.5491,-485.864818,-90.48089,624.767322,2384,388837,-17.735624,-34.148405,0.000001,68.984277,0,0,0,0.436332,0,10.979189,381.002262,-102.611707,105.090429,-0.177356,-0.341484,0,0.689843,0,0
0.5,-1187941.707,-6195292.715,940001.8573,-485.508484,-88.619319,621.4036,2384,388837,-17.720665,-34.116208,0.000001,68.97889,0,0,0,0.436332,0,10.978331,381.002055,-146.02927,15.757273,-0.177207,-0.341162,0,0.689789,0,0
0.51,-1187941.707,-6195292.715,940001.8573,-485.508484,-88.619319,621.4036,2384,388837,-17.705728,-34.084057,0.000001,68.973394,0,0,0,0.436332,0,10.977457,381.001848,-122.670735,-80.773812,-0.177057,-0.340841,0,0.689734,0,0
0.52,-1187941.707,-6195292.715,940001.8573,-485.508484,-88.619319,621.4036,2384,388837,-17.690813,-34.05195,0.000001,68.96779,0,0,0,0.436332,0,10.976565,381.001642,-43.230827,-140.368416,-0.176908,-0.340519,0,0.689678,0,0
0.53,-1187941.707,-6195292.715,940001.8573,-485.508484,-88.619319,621.4036,2384,388837,-17.67592,-34.019888,0.000001,68.962077,0,0,0,0.436332,0,10.975655,381.001436,55.963939,-135.793642,-0.176759,-0.340199,0,0.689621,0,0
0.54,-1187941.707,-6195292.715,940001.8573,-485.508484,-88.619319,621.4036,2384,388837,-17.661048,-33.987871,0.000001,68.956256,0,0,0,0.436332,0,10.974729,381.001231,129.572477,-69.155825,-0.17661,-0.339879,0,0.689563,0,0
0.55,-1187941.707,-6195292.715,940001.8573,-485.508484,-88.619319,621.4036,2384,388837,-17.646198,-33.955899,0.000001,68.950326,0,0,0,0.436332,0,10.973785,381.001025,143.964178,29.078334,-0.176462,-0.339559,0,0.689503,0,0
0.56,-1187941.707,-6195292.715,940001.8573,-485.508484,-88.619319,621.4036,2384,388837,-17.63137,-33.923972,0.000001,68.944288,0,0,0,0.436332,0,10.972824,381.00082,92.578336,114.018268,-0.176314,-0.33924,0,0.689443,0,0
0.57,-1187941.707,-6195292.715,940001.8573,-485.508484,-88.619319,621.4036,2384,388837,-17.616563,-33.89209,0.000001,68.938142,0,0,0,0.436332,0,10.971846,381.000615,-1.094344,146.86523,-0.176166,-0.338921,0,0.689381,0,0
0.58,-1187941.707,-6195292.715,940001.8573,-485.508484,-88.619319,621.4036,2384,388837,-17.601778,-33.860252,0.000001,68.931888,0,0,0,0.436332,0,10.970851,381.000411,-94.258819,112.63014,-0.176018,-0.338603,0,0.689319,0,0
0.59,-1187941.707,-6195292.715,940001.8573,-485.508484,-88.619319,621.4036,2384,388837,-17.587014,-33.828459,0.000001,68.925525,0,0,0,0.436332,0,10.969838,381.000207,-144.370603,26.964465,-0.17587,-0.338285,0,0.689255,0,0
0.6,-1187945.063,-6195310.147,940063.8309,-485.154808,-86.771648,618.072554,2384,388837,-17.572272,-33.79671,0.000001,68.919054,0,0,0,0.436332,0,10.968808,381.000003,-128.561112,-71.004749,-0.175723,-0.337967,0,0.689191,0,0
0.61,-1187945.063,-6195310.147,940063.8309,-485.154808,-86.771648,618.072554,2384,388837,-17.557551,-33.765005,0.000001,68.912474,0,0,0,0.436332,0,10.967761,380.999799,-54.065254,-136.551319,-0.175576,-0.33765,0,0.689125,0,0
0.62,-1187945.063,-6195310.147,940063.8309,-485.154808,-86.771648,618.072554,2384,388837,-17.542852,-33.733345,0.000001,68.905787,0,0,0,0.436332,0,10.966697,380.999596,45.099709,-139.767704,-0.175429,-0.337333,0,0.689058,0,0
0.63,-1187945.063,-6195310.147,940063.8309,-485.154808,-86.771648,618.072554,2384,388837,-17.528174,-33.701729,0.000001,68.898991,0,0,0,0.436332,0,10.965615,380.999393,123.674819,-79.203629,-0.175282,-0.337017,0,0.68899,0,0
0.64,-1187945.063,-6195310.147,940063.8309,-485.154808,-86.771648,618.072554,2384,388837,-17.513517,-33.670158,0.000001,68.892087,0,0,0,0.436332,0,10.964516,380.99919,145.816433,17.490707,-0.175135,-0.336702,0,0.688921,0,0
0.65,-1187945.063,-6195310.147,940063.8309,-485.154808,-86.771648,618.072554,2384,388837,-17.498882,-33.63863,0.000001,68.885075,0,0,0,0.436332,0,10.9634,380.998987,101.440784,106.197013,-0.174989,-0.336386,0,0.688851,0,0
0.66,-1187945.063,-6195310.147,940063.8309,-485.154808,-86.771648,618.072554,2384,388837,-17.484269,-33.607146,0.000001,68.877954,0,0,0,0.436332,0,10.962267,380.998785,10.805724,146.461448,-0.174843,-0.336071,0,0.68878,0,0
0.67,-1187945.063,-6195310.147,940063.8309,-485.154808,-86.771648,618.072554,2384,388837,-17.469676,-33.575707,0.000001,68.870726,0,0,0,0.436332,0,10.961116,380.998583,-84.747325,119.938701,-0.174697,-0.335757,0,0.688707,0,0
0.68,-1187945.063,-6195310.147,940063.8309,-485.154808,-86.771648,618.072554,2384,388837,-17.455105,-33.544311,0.000001,68.86339,0,0,0,0.436332,0,10.959949,380.998382,-141.655466,38.740313,-0.174551,-0.335443,0,0.688634,0,0
0.69,-1187945.063,-6195310.147,940063.8309,-485.154808,-86.771648,618.072554,2384,388837,-17.440555,-33.512959,0.000001,68.855945,0,0,0,0.436332,0,10.958764,380.99818,-133.992122,-60.107204,-0.174406,-0.33513,0,0.688559,0,0
0.7,-1187945.063,-6195310.147,940063.8309,-485.154808,-86.771648,618.072554,2384,388837,-17.426026,-33.481651,0.000001,68.848393,0,0,0,0.436332,0,10.957562,380.997979,-65.269536,-131.553543,-0.17426,-0.334817,0,0.688484,0,0
0.71,-1187945.063,-6195310.147,940063.8309,-485.154808,-86.771648,618.072554,2384,388837,-17.411518,-33.450387,0.000001,68.840732,0,0,0,0.436332,0,10.956343,380.997779,33.18274,-143.056056,-0.174115,-0.334504,0,0.688407,0,0
0.72,-1187945.063,-6195310.147,940063.8309,-485.154808,-86.771648,618.072554,2384,388837,-17.397032,-33.419166,0.000001,68.832964,0,0,0,0.436332,0,10.955106,380.997578,116.509454,-89.394401,-0.17397,-0.334192,0,0.68833,0,0
0.73,-1187945.063,-6195310.147,940063.8309,-485.154808,-86.771648,618.072554,2384,388837,-17.382566,-33.387989,0.000001,68.825088,0,0,0,0.436332,0,10.953853,380.997378,146.767743,4.972317,-0.173826,-0.33388,0,0.688251,0,0
0.74,-1187945.063,-6195310.147,940063.8309,-485.154808,-86.771648,618.072554,2384,388837,-17.368122,-33.356855,0.000001,68.817103,0,0,0,0.436332,0,10.952582,380.997178,110.198124,97.064673,-0.173681,-0.333569,0,0.688171,0,0
0.75,-1187945.063,-6195310.147,940063.8309,-485.154808,-86.771648,618.072554,2384,388837,-17.353699,-33.325764,0.000001,68.809011,0,0,0,0.436332,0,10.951294,380.996978,23.469611,144.962194,-0.173537,-0.333258,0,0.68809,0,0
0.76,-1187945.063,-6195310.147,940063.8309,-485.154808,-86.771648,618.072554,2384,388837,-17.339296,-33.294717,0.000001,68.800812,0,0,0,0.436332,0,10.949989,380.996779,-73.930225,126.881304,-0.173393,-0.332947,0,0.688008,0,0
0.77,-1187945.063,-6195310.147,940063.8309,-485.154808,-86.771648,618.072554,2384,388837,-17.324915,-33.263713,0.000001,68.792504,0,0,0,0.436332,0,10.948667,380.99658,-137.680586,51.071355,-0.173249,-0.332637,0,0.687925,0,0
0.78,-1187945.063,-6195310.147,940063.8309,-485.154808,-86.771648,618.072554,2384,388837,-17.310554,-33.232753,0.000001,68.784088,0,0,0,0.436332,0,10.947328,380.996381,-138.793227,-47.961972,-0.173106,-0.332328,0,0.687841,0,0
0.79,-1187945.063,-6195310.147,940063.8309,-485.154808,-86.771648,618.072554,2384,388837,-17.296215,-33.201835,0.000001,68.775565,0,0,0,0.436332,0,10.945971,380.996183,-76.784039,-125.171106,-0.172962,-0.332018,0,0.687756,0,0
0.8,-1187951.67,-6195344.46,940186.7867,-484.45528,-83.117218,611.506685,2384,388837,-17.281896,-33.17096,0.000001,68.766934,0,0,0,0.436332,0,10.944598,380.995985,20.1301,-145.458095,-0.172819,-0.33171,0,0.687669,0,0
0.81,-1187951.67,-6195344.46,940186.7867,-484.45528,-83.117218,611.506685,2384,388837,-17.267599,-33.140129,0.000001,68.758196,0,0,0,0.436332,0,10.943207,380.995787,107.882049,-99.621413,-0.172676,-0.331401,0,0.687582,0,0
0.82,-1187951.67,-6195344.46,940186.7867,-484.45528,-83.117218,611.506685,2384,388837,-17.253322,-33.10934,0.000001,68.74935,0,0,0,0.436332,0,10.941799,380.995589,146.595096,-8.516141,-0.172533,-0.331093,0,0.687493,0,0
0.83,-1187951.67,-6195344.46,940186.7867,-484.45528,-83.117218,611.506685,2384,388837,-17.239066,-33.078594,0.000001,68.740396,0,0,0,0.436332,0,10.940374,380.995392,118.697923,86.447293,-0.172391,-0.330786,0,0.687404,0,0
0.84,-1187951.67,-6195344.46,940186.7867,-484.45528,-83.117218,611.506685,2384,388837,-17.22483,-33.047891,0.000001,68.731335,0,0,0,0.436332,0,10.938932,380.995195,36.88724,142.131445,-0.172248,-0.330479,0,0.687313,0,0
0.85,-1187951.67,-6195344.46,940186.7867,-484.45528,-83.117218,611.506685,2384,388837,-17.210616,-33.017231,0.000001,68.722166,0,0,0,0.436332,0,10.937472,380.994998,-61.66453,133.263598,-0.172106,-0.330172,0,0.687222,0,0
0.86,-1187951.67,-6195344.46,940186.7867,-484.45528,-83.117218,611.506685,2384,388837,-17.196422,-32.986613,0.000001,68.712889,0,0,0,0.436332,0,10.935996,380.994801,-132.207773,63.894372,-0.171964,-0.329866,0,0.687129,0,0
0.87,-1187951.67,-6195344.46,940186.7867,-484.45528,-83.117218,611.506685,2384,388837,-17.182248,-32.956037,0.000001,68.703506,0,0,0,0.436332,0,10.934503,380.994605,-142.734372,-34.466945,-0.171822,-0.32956,0,0.687035,0,0
0.88,-1187951.67,-6195344.46,940186.7867,-484.45528,-83.117218,611.506685,2384,388837,-17.168096,-32.925505,0.000001,68.694014,0,0,0,0.436332,0,10.932992,380.994409,-88.491004,-117.175504,-0.171681,-0.329255,0,0.68694,0,0
0.89,-1187951.67,-6195344.46,940186.7867,-484.45528,-83.117218,611.506685,2384,388837,-17.153964,-32.895014,0.000001,68.684416,0,0,0,0.436332,0,10.931464,380.994214,5.88926,-146.716593,-0.17154,-0.32895,0,0.686844,0,0
0.9,-1187954.921,-6195361.344,940247.7753,-484.109354,-81.310077,608.270975,2384,388837,-17.139852,-32.864566,0.000001,68.67471,0,0,0,0.436332,0,10.92992,380.994018,97.586154,-109.713584,-0.171399,-0.328646,0,0.686747,0,0
0.91,-1187954.921,-6195361.344,940247.7753,-484.109354,-81.310077,608.270975,2384,388837,-17.125761,-32.83416,0.000001,68.664897,0,0,0,0.436332,0,10.928358,380.993823,145.024694,-22.970677,-0.171258,-0.328342,0,0.686649,0,0
0.92,-1187954.921,-6195361.344,940247.7753,-484.109354,-81.310077,608.270975,2384,388837,-17.111691,-32.803796,0.000001,68.654976,0,0,0,0.436332,0,10.926779,380.993628,126.719764,74.172781,-0.171117,-0.328038,0,0.68655,0,0
0.93,-1187954.921,-6195361.344,940247.7753,-484.109354,-81.310077,608.270975,2384,388837,-17.097641,-32.773475,0.000001,68.644948,0,0,0,0.436332,0,10.925183,380.993434,50.993402,137.691174,-0.170976,-0.327735,0,0.686449,0,0
0.94,-1187954.921,-6195361.344,940247.7753,-484.109354,-81.310077,608.270975,2384,388837,-17.083612,-32.743195,0.000001,68.634814,0,0,0,0.436332,0,10.92357,380.99324,-47.824133,138.822639,-0.170836,-0.327432,0,0.686348,0,0
0.95,-1187954.921,-6195361.344,940247.7753,-484.109354,-81.310077,608.270975,2384,388837,-17.069603,-32.712958,0.000001,68.624571,0,0,0,0.436332,0,10.92194,380.993046,-124.968367,77.08091,-0.170696,-0.32713,0,0.686246,0,0
0.96,-1187954.921,-6195361.344,940247.7753,-484.109354,-81.310077,608.270975,2384,388837,-17.055614,-32.682762,0.000001,68.614222,0,0,0,0.436332,0,10.920293,380.992852,-145.519597,-19.552318,-0.170556,-0.326828,0,0.686142,0,0
0.97,-1187954.921,-6195361.344,940247.7753,-484.109354,-81.310077,608.270975,2384,388837,-17.041646,-32.652609,0.000001,68.603766,0,0,0,0.436332,0,10.918628,380.992659,-100.199691,-107.321737,-0.170416,-0.326526,0,0.686038,0,0
0.98,-1187954.921,-6195361.344,940247.7753,-484.109354,-81.310077,608.270975,2384,388837,-17.027698,-32.622497,0.000001,68.593203,0,0,0,0.436332,0,10.916947,380.992465,-9.544907,-146.514557,-0.170277,-0.326225,0,0.685932,0,0
0.99,-1187954.921,-6195361.344,940247.7753,-484.109354,-81.310077,608.270975,2384,388837,-17.01377,-32.592426,0.000001,68.582532,0,0,0,0.436332,0,10.915249,380.992273,85.414754,-119.422057,-0.170138,-0.325924,0,0.685825,0,0
1,-1188409.906,-6195291.405,940308.4419,-483.771737,-79.480791,605.06617,2384,388838,-16.999863,-32.562398,0.000001,68.571755,0,0,0,0.436332,0,10.913534,380.99208,141.732572,-38.325886,-0.169999,-0.325624,0,0.685718,0,0
1.01,-1188409.906,-6195291.405,940308.4419,-483.771737,-79.480791,605.06617,2384,388838,-16.985976,-32.532411,0.000001,68.560871,0,0,0,0.436332,0,10.911801,380.991888,133.964115,60.085765,-0.16986,-0.325324,0,0.685609,0,0
1.02,-1188409.906,-6195291.405,940308.4419,-483.771737,-79.480791,605.06617,2384,388838,-16.972109,-32.502465,0.000001,68.54988,0,0,0,0.436332,0,10.910052,380.991696,65.649336,131.326067,-0.169721,-0.325025,0,0.685499,0,0
1.03,-1188409.906,-6195291.405,940308.4419,-483.771737,-79.480791,605.06617,2384,388838,-16.958262,-32.472561,0.000001,68.538782,0,0,0,0.436332,0,10.908286,380.991504,-32.31755,143.218837,-0.169583,-0.324726,0,0.685388,0,0
1.04,-1188409.906,-6195291.405,940308.4419,-483.771737,-79.480791,605.06617,2384,388838,-16.944436,-32.442698,0.000001,68.527577,0,0,0,0.436332,0,10.906503,380.991313,-115.672245,90.419463,-0.169444,-0.324427,0,0.685276,0,0
1.05,-1188409.906,-6195291.405,940308.4419,-483.771737,-79.480791,605.06617,2384,388838,-16.930629,-32.412877,0.000001,68.516266,0,0,0,0.436332,0,10.904702,380.991122,-146.782806,-3.200588,-0.169306,-0.324129,0,0.685163,0,0
1.06,-1188409.906,-6195291.405,940308.4419,-483.771737,-79.480791,605.06617,2384,388838,-16.916843,-32.383097,0.000001,68.504848,0,0,0,0.436332,0,10.902885,380.990931,-111.630173,-95.361571,-0.169168,-0.323831,0,0.685048,0,0
1.07,-1188409.906,-6195291.405,940308.4419,-483.771737,-79.480791,605.06617,2384,388838,-16.903077,-32.353358,0.000001,68.493323,0,0,0,0.436332,0,10.901051,380.99074,-26.108668,-144.475433,-0.169031,-0.323534,0,0.684933,0,0
1.08,-1188409.906,-6195291.405,940308.4419,-483.771737,-79.480791,605.06617,2384,388838,-16.889331,-32.32366,0.000001,68.481692,0,0,0,0.436332,0,10.8992,380.99055,71.177552,-128.406614,-0.168893,-0.323237,0,0.684817,0,0
1.09,-1188409.906,-6195291.405,940308.4419,-483.771737,-79.480791,605.06617,2384,388838,-16.875605,-32.294003,0.000001,68.469954,0,0,0,0.436332,0,10.897332,380.99036,136.349697,-54.433003,-0.168756,-0.32294,0,0.6847,0,0
1.1,-1188413.089,-6195307.93,940368.7896,-483.430669,-77.699755,601.891844,2384,388838,-16.861898,-32.264387,0.000001,68.458109,0,0,0,0.436332,0,10.895446,380.99017,140.042338,44.068405,-0.168619,-0.322644,0,0.684581,0,0
1.11,-1188413.089,-6195307.93,940368.7896,-483.430669,-77.699755,601.891844,2384,388838,-16.848212,-32.234812,0.000001,68.446158,0,0,0,0.436332,0,10.893544,380.98998,80.621405,122.693763,-0.168482,-0.322348,0,0.684462,0,0
1.12,-1188413.089,-6195307.93,940368.7896,-483.430669,-77.699755,601.891844,2384,388838,-16.834546,-32.205278,0.000001,68.434101,0,0,0,0.436332,0,10.891625,380.989791,-15.111527,146.030482,-0.168345,-0.322053,0,0.684341,0,0
1.13,-1188413.089,-6195307.93,940368.7896,-483.430669,-77.699755,601.891844,2384,388838,-16.820899,-32.175784,0.000001,68.421937,0,0,0,0.436332,0,10.88969,380.989602,-104.02319,103.595974,-0.168209,-0.321758,0,0.684219,0,0
1.14,-1188413.089,-6195307.93,940368.7896,-483.430669,-77.699755,601.891844,2384,388838,-16.807273,-32.146331,0.000001,68.409667,0,0,0,0.436332,0,10.887737,380.989414,-146.087568,14.527992,-0.168073,-0.321463,0,0.684097,0,0
1.15,-1188413.089,-6195307.93,940368.7896,-483.430669,-77.699755,601.891844,2384,388838,-16.793666,-32.116919,0.000001,68.397291,0,0,0,0.436332,0,10.885767,380.989225,-122.396873,-81.063775,-0.167937,-0.321169,0,0.683973,0,0
1.16,-1188413.089,-6195307.93,940368.7896,-483.430669,-77.699755,601.891844,2384,388838,-16.780079,-32.087547,0.000001,68.384808,0,0,0,0.436332,0,10.88378,380.989037,-43.643304,-140.168765,-0.167801,-0.320875,0,0.683848,0,0
1.17,-1188413.089,-6195307.93,940368.7896,-483.430669,-77.699755,601.891844,2384,388838,-16.766512,-32.058216,0.000001,68.372219,0,0,0,0.436332,0,10.881777,380.988849,54.725493,-136.223462,-0.167665,-0.320582,0,0.683722,0,0
1.18,-1188413.089,-6195307.93,940368.7896,-483.430669,-77.699755,601.891844,2384,388838,-16.752965,-32.028926,0.000001,68.359524,0,0,0,0.436332,0,10.879756,380.988662,128.473776,-71.034433,-0.16753,-0.320289,0,0.683595,0,0
1.19,-1188413.089,-6195307.93,940368.7896,-483.430669,-77.699755,601.891844,2384,388838,-16.739437,-31.999675,0.000001,68.346723,0,0,0,0.436332,0,10.877719,380.988475,144.469838,26.068345,-0.167394,-0.319997,0,0.683467,0,0
1.2,-1188416.238,-6195324.277,940428.8213,-483.092043,-75.931487,598.747577,2384,388838,-16.725929,-31.970465,0.000001,68.333816,0,0,0,0.436332,0,10.875665,380.988288,95.557717,111.442841,-0.167259,-0.319705,0,0.683338,0,0
1.21,-1188416.238,-6195324.277,940428.8213,-483.092043,-75.931487,598.747577,2384,388838,-16.712441,-31.941295,0.000001,68.320803,0,0,0,0.436332,0,10.873594,380.988101,3.738719,146.753184,-0.167124,-0.319413,0,0.683208,0,0
1.22,-1188416.238,-6195324.277,940428.8213,-483.092043,-75.931487,598.747577,2384,388838,-16.698972,-31.912166,0.000001,68.307684,0,0,0,0.436332,0,10.871506,380.987915,-89.742748,116.174033,-0.16699,-0.319122,0,0.683077,0,0
1.23,-1188416.238,-6195324.277,940428.8213,-483.092043,-75.931487,598.747577,2384,388838,-16.685523,-31.883076,0.000001,68.294459,0,0,0,0.436332,0,10.869401,380.987728,-142.933548,33.464297,-0.166855,-0.318831,0,0.682945,0,0
1.24,-1188416.238,-6195324.277,940428.8213,-483.092043,-75.931487,598.747577,2384,388838,-16.672093,-31.854026,0.000001,68.281129,0,0,0,0.436332,0,10.867279,380.987543,-131.99381,-64.243164,-0.166721,-0.31854,0,0.682811,0,0
1.25,-1188416.238,-6195324.277,940428.8213,-483.092043,-75.931487,598.747577,2384,388838,-16.658683,-31.825017,0.000001,68.267692,0,0,0,0.436332,0,10.865141,380.987357,-61.864702,-133.124005,-0.166587,-0.31825,0,0.682677,0,0
1.26,-1188416.238,-6195324.277,940428.8213,-483.092043,-75.931487,598.747577,2384,388838,-16.645293,-31.796047,0.000001,68.25415,0,0,0,0.436332,0,10.862985,380.987172,35.983966,-142.316859,-0.166453,-0.31796,0,0.682541,0,0
1.27,-1188416.238,-6195324.277,940428.8213,-483.092043,-75.931487,598.747577,2384,388838,-16.631922,-31.767117,0.000001,68.240502,0,0,0,0.436332,0,10.860813,380.986987,117.690507,-87.735802,-0.166319,-0.317671,0,0.682405,0,0
1.28,-1188416.238,-6195324.277,940428.8213,-483.092043,-75.931487,598.747577,2384,388838,-16.618571,-31.738227,0.000001,68.226748,0,0,0,0.436332,0,10.858624,380.986802,146.665212,6.134692,-0.166186,-0.317382,0,0.682267,0,0
1.29,-1188416.238,-6195324.277,940428.8213,-483.092043,-75.931487,598.747577,2384,388838,-16.605238,-31.709377,0.000001,68.212889,0,0,0,0.436332,0,10.856418,380.986617,109.964434,97.241116,-0.166052,-0.317094,0,0.682129,0,0
1.3,-1188419.354,-6195340.449,940488.5401,-482.755825,-74.175808,595.632958,2384,388838,-16.591926,-31.680566,0.000001,68.198924,0,0,0,0.436332,0,10.854196,380.986433,24.052431,144.807406,-0.165919,-0.316806,0,0.681989,0,0
1.31,-1188419.354,-6195340.449,940488.5401,-482.755825,-74.175808,595.632958,2384,388838,-16.578632,-31.651795,0.000001,68.184854,0,0,0,0.436332,0,10.851957,380.986249,-72.604765,127.577214,-0.165786,-0.316518,0,0.681849,0,0
1.32,-1188419.354,-6195340.449,940488.5401,-482.755825,-74.175808,595.632958,2384,388838,-16.565358,-31.623063,0.000001,68.170679,0,0,0,0.436332,0,10.8497,380.986066,-136.772916,53.29409,-0.165654,-0.316231,0,0.681707,0,0
1.33,-1188419.354,-6195340.449,940488.5401,-482.755825,-74.175808,595.632958,2384,388838,-16.552104,-31.594371,0.000001,68.156398,0,0,0,0.436332,0,10.847428,380.985882,-139.784591,-44.800135,-0.165521,-0.315944,0,0.681564,0,0
1.34,-1188419.354,-6195340.449,940488.5401,-482.755825,-74.175808,595.632958,2384,388838,-16.538868,-31.565718,0.000001,68.142011,0,0,0,0.436332,0,10.845138,380.985699,-80.330071,-122.855839,-0.165389,-0.315657,0,0.68142,0,0
1.35,-1188419.354,-6195340.449,940488.5401,-482.755825,-74.175808,595.632958,2384,388838,-16.525652,-31.537104,0.000001,68.12752,0,0,0,0.436332,0,10.842832,380.985516,14.995674,-146.018153,-0.165257,-0.315371,0,0.681275,0,0
1.36,-1188419.354,-6195340.449,940488.5401,-482.755825,-74.175808,595.632958,2384,388838,-16.512455,-31.50853,0.000001,68.112923,0,0,0,0.436332,0,10.840508,380.985334,103.60735,-103.977796,-0.165125,-0.315085,0,0.681129,0,0
1.37,-1188419.354,-6195340.449,940488.5401,-482.755825,-74.175808,595.632958,2384,388838,-16.499278,-31.479995,0.000001,68.098221,0,0,0,0.436332,0,10.838169,380.985151,145.959362,-15.537816,-0.164993,-0.3148,0,0.680982,0,0
1.38,-1188419.354,-6195340.449,940488.5401,-482.755825,-74.175808,595.632958,2384,388838,-16.486119,-31.451498,0.000001,68.083414,0,0,0,0.436332,0,10.835812,380.984969,123.184887,79.816896,-0.164861,-0.314515,0,0.680834,0,0
1.39,-1188419.354,-6195340.449,940488.5401,-482.755825,-74.175808,595.632958,2384,388838,-16.47298,-31.423041,0.000001,68.068502,0,0,0,0.436332,0,10.833439,380.984788,45.480201,139.558228,-0.16473,-0.31423,0,0.680685,0,0
1.4,-1188419.354,-6195340.449,940488.5401,-482.755825,-74.175808,595.632958,2384,388838,-16.45986,-31.394623,0.000001,68.053485,0,0,0,0.436332,0,10.831049,380.984606,-52.482599,137.07742,-0.164599,-0.313946,0,0.680535,0,0
1.41,-1188419.354,-6195340.449,940488.5401,-482.755825,-74.175808,595.632958,2384,388838,-16.446758,-31.366244,0.000001,68.038363,0,0,0,0.436332,0,10.828642,380.984425,-127.040792,73.518529,-0.164468,-0.313662,0,0.680384,0,0
1.42,-1188419.354,-6195340.449,940488.5401,-482.755825,-74.175808,595.632958,2384,388838,-16.433676,-31.337904,0.000001,68.023137,0,0,0,0.436332,0,10.826218,380.984244,-145.001643,-22.77181,-0.164337,-0.313379,0,0.680231,0,0
1.43,-1188419.354,-6195340.449,940488.5401,-482.755825,-74.175808,595.632958,2384,388838,-16.420613,-31.309603,0.000001,68.007805,0,0,0,0.436332,0,10.823778,380.984063,-98.404691,-108.904746,-0.164206,-0.313096,0,0.680078,0,0
1.44,-1188419.354,-6195340.449,940488.5401,-482.755825,-74.175808,595.632958,2384,388838,-16.407569,-31.28134,0.000001,67.992369,0,0,0,0.436332,0,10.821322,380.983883,-8.026784,-146.557132,-0.164076,-0.312813,0,0.679924,0,0
1.45,-1188419.354,-6195340.449,940488.5401,-482.755825,-74.175808,595.632958,2384,388838,-16.394544,-31.253116,0.000001,67.976828,0,0,0,0.436332,0,10.818848,380.983703,85.902988,-119.01174,-0.163945,-0.312531,0,0.679768,0,0
1.46,-1188419.354,-6195340.449,940488.5401,-482.755825,-74.175808,595.632958,2384,388838,-16.381538,-31.22493,0.000001,67.961182,0,0,0,0.436332,0,10.816358,380.983523,141.619635,-38.557647,-0.163815,-0.312249,0,0.679612,0,0
1.47,-1188419.354,-6195340.449,940488.5401,-482.755825,-74.175808,595.632958,2384,388838,-16.368551,-31.196783,0.000001,67.945432,0,0,0,0.436332,0,10.813851,380.983344,134.386322,59.015467,-0.163686,-0.311968,0,0.679454,0,0
1.48,-1188419.354,-6195340.449,940488.5401,-482.755825,-74.175808,595.632958,2384,388838,-16.355582,-31.168675,0.000001,67.929578,0,0,0,0.436332,0,10.811328,380.983164,67.457307,130.352279,-0.163556,-0.311687,0,0.679296,0,0
1.49,-1188419.354,-6195340.449,940488.5401,-482.755825,-74.175808,595.632958,2384,388838,-16.342633,-31.140605,0.000001,67.913618,0,0,0,0.436332,0,10.808788,380.982985,-29.410157,143.794797,-0.163426,-0.311406,0,0.679136,0,0
1.5,-1188425.484,-6195372.268,940607.0505,-482.09048,-70.701521,589.491046,2384,388838,-16.329702,-31.112573,0.000001,67.897555,0,0,0,0.436332,0,10.806232,380.982807,-113.204238,93.41519,-0.163297,-0.311126,0,0.678976,0,0
1.51,-1188425.484,-6195372.268,940607.0505,-482.09048,-70.701521,589.491046,2384,388838,-16.31679,-31.084579,0.000001,67.881387,0,0,0,0.436332,0,10.803658,380.982628,-146.760745,1.605428,-0.163168,-0.310846,0,0.678814,0,0
1.52,-1188425.484,-6195372.268,940607.0505,-482.09048,-70.701521,589.491046,2384,388838,-16.303897,-31.056624,0.000001,67.865115,0,0,0,0.436332,0,10.801069,380.98245,-115.233731,-90.896521,-0.163039,-0.310566,0,0.678651,0,0
1.53,-1188425.484,-6195372.268,940607.0505,-482.09048,-70.701521,589.491046,2384,388838,-16.291023,-31.028707,0.000001,67.848739,0,0,0,0.436332,0,10.798462,380.982272,-32.640338,-143.091912,-0.16291,-0.310287,0,0.678487,0,0
1.54,-1188425.484,-6195372.268,940607.0505,-482.09048,-70.701521,589.491046,2384,388838,-16.278167,-31.000828,0.000001,67.832259,0,0,0,0.436332,0,10.795839,380.982094,64.395071,-131.885021,-0.162782,-0.310008,0,0.678323,0,0
1.55,-1188425.484,-6195372.268,940607.0505,-482.09048,-70.701521,589.491046,2384,388838,-16.265331,-30.972987,0.000001,67.815674,0,0,0,0.436332,0,10.7932,380.981917,132.895003,-62.281613,-0.162653,-0.30973,0,0.678157,0,0
1.56,-1188425.484,-6195372.268,940607.0505,-482.09048,-70.701521,589.491046,2384,388838,-16.252512,-30.945184,0.000001,67.798986,0,0,0,0.436332,0,10.790544,380.98174,142.561296,34.871984,-0.162525,-0.309452,0,0.67799,0,0
1.57,-1188425.484,-6195372.268,940607.0505,-482.09048,-70.701521,589.491046,2384,388838,-16.239713,-30.917419,0.000001,67.782194,0,0,0,0.436332,0,10.787871,380.981563,89.158423,116.577234,-0.162397,-0.309174,0,0.677822,0,0
1.58,-1188425.484,-6195372.268,940607.0505,-482.09048,-70.701521,589.491046,2384,388838,-16.226932,-30.889692,0.000001,67.765298,0,0,0,0.436332,0,10.785182,380.981386,-3.656197,146.716753,-0.162269,-0.308897,0,0.677653,0,0
1.59,-1188425.484,-6195372.268,940607.0505,-482.09048,-70.701521,589.491046,2384,388838,-16.21417,-30.862003,0.000001,67.748298,0,0,0,0.436332,0,10.782476,380.98121,-94.834128,112.006069,-0.162142,-0.30862,0,0.677483,0,0
1.6,-1188428.499,-6195387.918,940665.848,-481.761287,-68.982573,586.46296,2384,388838,-16.201426,-30.834351,0.000001,67.731194,0,0,0,0.436332,0,10.779754,380.981034,-144.098472,27.82444,-0.162014,-0.308344,0,0.677312,0,0
1.61,-1188428.499,-6195387.918,940665.848,-481.761287,-68.982573,586.46296,2384,388838,-16.188701,-30.806737,0.000001,67.713987,0,0,0,0.436332,0,10.777016,380.980858,-129.726889,-68.623622,-0.161887,-0.308067,0,0.67714,0,0
1.62,-1188428.499,-6195387.918,940665.848,-481.761287,-68.982573,586.46296,2384,388838,-16.175994,-30.77916,0.000001,67.696676,0,0,0,0.436332,0,10.774261,380.980683,-58.107331,-134.764623,-0.16176,-0.307792,0,0.676967,0,0
1.63,-1188428.499,-6195387.918,940665.848,-481.761287,-68.982573,586.46296,2384,388838,-16.163306,-30.751621,0.000001,67.679261,0,0,0,0.436332,0,10.771489,380.980508,39.127226,-141.445128,-0.161633,-0.307516,0,0.676793,0,0
1.64,-1188428.499,-6195387.918,940665.848,-481.761287,-68.982573,586.46296,2384,388838,-16.151075,-30.724595,0.000001,67.661743,0,0,0,0.436332,0,10.768701,380.980333,119.088665,-85.76277,-0.161511,-0.307246,0,0.676617,0,0
1.65,-1188428.499,-6195387.918,940665.848,-481.761287,-68.982573,586.46296,2384,388838,-16.139528,-30.698324,0.000001,67.644122,0,0,0,0.436332,0,10.765896,380.980158,146.552987,7.699574,-0.161395,-0.306983,0,0.676441,0,0
1.66,-1188428.499,-6195387.918,940665.848,-481.761287,-68.982573,586.46296,2384,388838,-16.127993,-30.672081,0.000001,67.626397,0,0,0,0.436332,0,10.763075,380.979984,109.461977,97.748842,-0.16128,-0.306721,0,0.676264,0,0
1.67,-1188428.499,-6195387.918,940665.848,-481.761287,-68.982573,586.46296,2384,388838,-16.116468,-30.645866,0.000001,67.608569,0,0,0,0.436332,0,10.760238,380.979809,24.191653,144.745375,-0.161165,-0.306459,0,0.676086,0,0
1.68,-1188428.499,-6195387.918,940665.848,-481.761287,-68.982573,586.46296,2384,388838,-16.104955,-30.61968,0.000001,67.590638,0,0,0,0.436332,0,10.757384,380.979636,-71.702944,128.042363,-0.16105,-0.306197,0,0.675906,0,0
1.69,-1188428.499,-6195387.918,940665.848,-481.761287,-68.982573,586.46296,2384,388838,-16.093453,-30.593522,0.000001,67.572603,0,0,0,0.436332,0,10.754514,380.979462,-136.041296,55.032937,-0.160935,-0.305935,0,0.675726,0,0
1.7,-1188431.481,-6195403.397,940724.3441,-481.43435,-67.27542,583.462513,2384,388838,-16.081963,-30.567392,0.000001,67.554466,0,0,0,0.436332,0,10.751627,380.979289,-140.566781,-42.148999,-0.16082,-0.305674,0,0.675545,0,0
1.71,-1188431.481,-6195403.397,940724.3441,-481.43435,-67.27542,583.462513,2384,388838,-16.070484,-30.54129,0.000001,67.536226,0,0,0,0.436332,0,10.748724,380.979116,-83.336325,-120.790376,-0.160705,-0.305413,0,0.675362,0,0
1.72,-1188431.481,-6195403.397,940724.3441,-481.43435,-67.27542,583.462513,2384,388838,-16.059016,-30.515217,0.000001,67.517882,0,0,0,0.436332,0,10.745805,380.978943,10.473267,-146.373729,-0.16059,-0.305152,0,0.675179,0,0
1.73,-1188431.481,-6195403.397,940724.3441,-481.43435,-67.27542,583.462513,2384,388838,-16.047559,-30.489171,0.000001,67.499436,0,0,0,0.436332,0,10.742869,380.97877,99.663657,-107.711715,-0.160476,-0.304892,0,0.674994,0,0
1.74,-1188431.481,-6195403.397,940724.3441,-481.43435,-67.27542,583.462513,2384,388838,-16.036114,-30.463154,0.000001,67.480887,0,0,0,0.436332,0,10.739917,380.978598,145.115736,-21.812419,-0.160361,-0.304632,0,0.674809,0,0
1.75,-1188431.481,-6195403.397,940724.3441,-481.43435,-67.27542,583.462513,2384,388838,-16.02468,-30.437165,0.000001,67.462236,0,0,0,0.436332,0,10.736948,380.978426,126.936587,73.628538,-0.160247,-0.304372,0,0.674622,0,0
1.76,-1188431.481,-6195403.397,940724.3441,-481.43435,-67.27542,583.462513,2384,388838,-16.013258,-30.411204,0.000001,67.443482,0,0,0,0.436332,0,10.733963,380.978254,53.14131,136.783627,-0.160133,-0.304112,0,0.674435,0,0
1.77,-1188431.481,-6195403.397,940724.3441,-481.43435,-67.27542,583.462513,2384,388838,-16.001846,-30.385271,0.000001,67.424625,0,0,0,0.436332,0,10.730962,380.978083,-43.908477,140.019662,-0.160018,-0.303853,0,0.674246,0,0
1.78,-1188431.481,-6195403.397,940724.3441,-481.43435,-67.27542,583.462513,2384,388838,-15.990447,-30.359366,0.000001,67.405665,0,0,0,0.436332,0,10.727945,380.977912,-121.714959,81.967249,-0.159904,-0.303594,0,0.674057,0,0
1.79,-1188431.481,-6195403.397,940724.3441,-481.43435,-67.27542,583.462513,2384,388838,-15.979058,-30.333489,0.000001,67.386604,0,0,0,0.436332,0,10.724911,380.977741,-146.255134,-11.928882,-0.159791,-0.303335,0,0.673866,0,0
1.8,-1188434.431,-6195418.706,940782.5414,-481.109586,-65.579631,580.488301,2384,388838,-15.967681,-30.30764,0.000001,67.36744,0,0,0,0.436332,0,10.721861,380.97757,-106.841475,-100.585599,-0.159677,-0.303076,0,0.673674,0,0
1.81,-1188434.431,-6195418.706,940782.5414,-481.109586,-65.579631,580.488301,2384,388838,-15.956315,-30.281819,0.000001,67.348173,0,0,0,0.436332,0,10.718795,380.9774,-20.74867,-145.264441,-0.159563,-0.302818,0,0.673482,0,0
1.82,-1188434.431,-6195418.706,940782.5414,-481.109586,-65.579631,580.488301,2384,388838,-15.94496,-30.256026,0.000001,67.328805,0,0,0,0.436332,0,10.715712,380.97723,74.384239,-126.486963,-0.15945,-0.30256,0,0.673288,0,0
1.83,-1188434.431,-6195418.706,940782.5414,-481.109586,-65.579631,580.488301,2384,388838,-15.933617,-30.230261,0.000001,67.309334,0,0,0,0.436332,0,10.712613,380.97706,137.023021,-52.501051,-0.159336,-0.302303,0,0.673093,0,0
1.84,-1188434.431,-6195418.706,940782.5414,-481.109586,-65.579631,580.488301,2384,388838,-15.922285,-30.204525,0.000001,67.289761,0,0,0,0.436332,0,10.709498,380.97689,139.866483,44.370458,-0.159223,-0.302045,0,0.672898,0,0
1.85,-1188434.431,-6195418.706,940782.5414,-481.109586,-65.579631,580.488301,2384,388838,-15.910965,-30.178816,0.000001,67.270087,0,0,0,0.436332,0,10.706367,380.976721,81.723607,121.870114,-0.15911,-0.301788,0,0.672701,0,0
1.86,-1188434.431,-6195418.706,940782.5414,-481.109586,-65.579631,580.488301,2384,388838,-15.899655,-30.153135,0.000001,67.25031,0,0,0,0.436332,0,10.703219,380.976552,-12.017819,146.240716,-0.158997,-0.301531,0,0.672503,0,0
1.87,-1188434.431,-6195418.706,940782.5414,-481.109586,-65.579631,580.488301,2384,388838,-15.888358,-30.127481,0.000001,67.230432,0,0,0,0.436332,0,10.700056,380.976383,-100.50048,106.91179,-0.158884,-0.301275,0,0.672304,0,0
1.88,-1188434.431,-6195418.706,940782.5414,-481.109586,-65.579631,580.488301,2384,388838,-15.877071,-30.101856,0.000001,67.210452,0,0,0,0.436332,0,10.696876,380.976215,-145.213076,21.055699,-0.158771,-0.301019,0,0.672105,0,0
1.89,-1188434.431,-6195418.706,940782.5414,-481.109586,-65.579631,580.488301,2384,388838,-15.865796,-30.076259,0.000001,67.19037,0,0,0,0.436332,0,10.693679,380.976046,-126.740261,-73.937737,-0.158658,-0.300763,0,0.671904,0,0
1.9,-1188434.431,-6195418.706,940782.5414,-481.109586,-65.579631,580.488301,2384,388838,-15.854532,-30.050689,0.000001,67.170186,0,0,0,0.436332,0,10.690467,380.975878,-53.166864,-136.758438,-0.158545,-0.300507,0,0.671702,0,0
1.91,-1188434.431,-6195418.706,940782.5414,-481.109586,-65.579631,580.488301,2384,388838,-15.843279,-30.025148,0.000001,67.149902,0,0,0,0.436332,0,10.687239,380.975711,43.489971,-140.135332,-0.158433,-0.300251,0,0.671499,0,0
1.92,-1188434.431,-6195418.706,940782.5414,-481.109586,-65.579631,580.488301,2384,388838,-15.832038,-29.999634,0.000001,67.129515,0,0,0,0.436332,0,10.683994,380.975543,121.233646,-82.652255,-0.15832,-0.299996,0,0.671295,0,0
1.93,-1188434.431,-6195418.706,940782.5414,-481.109586,-65.579631,580.488301,2384,388838,-15.820808,-29.974147,0.000001,67.109028,0,0,0,0.436332,0,10.680733,380.975376,146.336723,10.689213,-0.158208,-0.299741,0,0.67109,0,0
1.94,-1188434.431,-6195418.706,940782.5414,-481.109586,-65.579631,580.488301,2384,388838,-15.80959,-29.948689,0.000001,67.088439,0,0,0,0.436332,0,10.677457,380.975209,107.955037,99.368552,-0.158096,-0.299487,0,0.670884,0,0
1.95,-1188434.431,-6195418.706,940782.5414,-481.109586,-65.579631,580.488301,2384,388838,-15.798382,-29.923258,0.000001,67.067749,0,0,0,0.436332,0,10.674164,380.975042,22.782702,144.944995,-0.157984,-0.299233,0,0.670677,0,0
1.96,-1188434.431,-6195418.706,940782.5414,-481.109586,-65.579631,580.488301,2384,388838,-15.787187,-29.897856,0.000001,67.046957,0,0,0,0.436332,0,10.670855,380.974876,-72.237259,127.708987,-0.157872,-0.298979,0,0.67047,0,0
1.97,-1188434.431,-6195418.706,940782.5414,-481.109586,-65.579631,580.488301,2384,388838,-15.776002,-29.87248,0.000001,67.026065,0,0,0,0.436332,0,10.66753,380.97471,-135.951604,55.178551,-0.15776,-0.298725,0,0.670261,0,0
1.98,-1188434.431,-6195418.706,940782.5414,-481.109586,-65.579631,580.488301,2384,388838,-15.764829,-29.847133,0.000001,67.005072,0,0,0,0.436332,0,10.664188,380.974544,-140.815221,-41.2103,-0.157648,-0.298471,0,0.670051,0,0
1.99,-1188434.431,-6195418.706,940782.5414,-481.109586,-65.579631,580.488301,2384,388838,-15.753667,-29.821813,0.000001,66.983978,0,0,0,0.436332,0,10.660831,380.974378,-84.776363,-119.749271,-0.157537,-0.298218,0,0.66984,0,0
2,-1188892.006,-6195362.139,940898.0502,-480.471005,-62.186556,574.617341,2384,388839,-15.742516,-29.796521,0.000001,66.962783,0,0,0,0.436332,0,10.657458,380.974213,7.889521,-146.507269,-0.157425,-0.297965,0,0.669628,0,0
2.01,-1188892.006,-6195362.139,940898.0502,-480.471005,-62.186556,574.617341,2384,388839,-15.731377,-29.771256,0.000001,66.941487,0,0,0,0.436332,0,10.654069,380.974048,97.121336,-109.971702,-0.157314,-0.297713,0,0.669415,0,0
2.02,-1188892.006,-6195362.139,940898.0502,-480.471005,-62.186556,574.617341,2384,388839,-15.720249,-29.74602,0.000001,66.920091,0,0,0,0.436332,0,10.650663,380.973883,144.400528,-25.971554,-0.157202,-0.29746,0,0.669201,0,0
2.03,-1188892.006,-6195362.139,940898.0502,-480.471005,-62.186556,574.617341,2384,388839,-15.709133,-29.72081,0.000001,66.898594,0,0,0,0.436332,0,10.647242,380.973719,129.366703,69.209792,-0.157091,-0.297208,0,0.668986,0,0
2.04,-1188892.006,-6195362.139,940898.0502,-480.471005,-62.186556,574.617341,2384,388839,-15.698027,-29.695628,0.000001,66.876997,0,0,0,0.436332,0,10.643805,380.973554,58.558176,134.522802,-0.15698,-0.296956,0,0.66877,0,0
2.05,-1188892.006,-6195362.139,940898.0502,-480.471005,-62.186556,574.617341,2384,388839,-15.686933,-29.670474,0.000001,66.855299,0,0,0,0.436332,0,10.640351,380.97339,-37.462879,141.850916,-0.156869,-0.296705,0,0.668553,0,0
2.06,-1188892.006,-6195362.139,940898.0502,-480.471005,-62.186556,574.617341,2384,388839,-15.675851,-29.645348,0.000001,66.833502,0,0,0,0.436332,0,10.636882,380.973227,-117.323487,88.091173,-0.156759,-0.296453,0,0.668335,0,0
2.07,-1188892.006,-6195362.139,940898.0502,-480.471005,-62.186556,574.617341,2384,388839,-15.66478,-29.620248,0.000001,66.811603,0,0,0,0.436332,0,10.633397,380.973063,-146.66921,-3.564228,-0.156648,-0.296202,0,0.668116,0,0
2.08,-1188892.006,-6195362.139,940898.0502,-480.471005,-62.186556,574.617341,2384,388839,-15.65372,-29.595177,0.000001,66.789605,0,0,0,0.436332,0,10.629896,380.9729,-112.925064,-93.660006,-0.156537,-0.295952,0,0.667896,0,0
2.09,-1188892.006,-6195362.139,940898.0502,-480.471005,-62.186556,574.617341,2384,388839,-15.642671,-29.570133,0.000001,66.767507,0,0,0,0.436332,0,10.626379,380.972737,-30.653299,-143.472465,-0.156427,-0.295701,0,0.667675,0,0
2.1,-1188894.86,-6195376.944,940955.3669,-480.152482,-60.524073,571.720056,2384,388839,-15.631634,-29.545116,0.000001,66.745309,0,0,0,0.436332,0,10.622846,380.972574,64.761325,-131.642128,-0.156316,-0.295451,0,0.667453,0,0
2.11,-1188894.86,-6195376.944,940955.3669,-480.152482,-60.524073,571.720056,2384,388839,-15.620608,-29.520126,0.000001,66.723011,0,0,0,0.436332,0,10.619297,380.972412,132.347531,-63.304948,-0.156206,-0.295201,0,0.66723,0,0
2.12,-1188894.86,-6195376.944,940955.3669,-480.152482,-60.524073,571.720056,2384,388839,-15.609593,-29.495165,0.000001,66.700613,0,0,0,0.436332,0,10.615732,380.97225,143.137033,32.169581,-0.156096,-0.294952,0,0.667006,0,0
2.13,-1188894.86,-6195376.944,940955.3669,-480.152482,-60.524073,571.720056,2384,388839,-15.59859,-29.47023,0.000001,66.678115,0,0,0,0.436332,0,10.612152,380.972088,92.557625,113.823921,-0.155986,-0.294702,0,0.666781,0,0
2.14,-1188894.86,-6195376.944,940955.3669,-480.152482,-60.524073,571.720056,2384,388839,-15.587598,-29.445323,0.000001,66.655518,0,0,0,0.436332,0,10.608555,380.971926,2.337793,146.686879,-0.155876,-0.294453,0,0.666555,0,0
2.15,-1188894.86,-6195376.944,940955.3669,-480.152482,-60.524073,571.720056,2384,388839,-15.576617,-29.420443,0.000001,66.632821,0,0,0,0.436332,0,10.604943,380.971765,-88.85586,116.734094,-0.155766,-0.294204,0,0.666328,0,0
2.16,-1188894.86,-6195376.944,940955.3669,-480.152482,-60.524073,571.720056,2384,388839,-15.565648,-29.395591,0.000001,66.610025,0,0,0,0.436332,0,10.601315,380.971604,-142.002095,36.84189,-0.155656,-0.293956,0,0.6661,0,0
2.17,-1188894.86,-6195376.944,940955.3669,-480.152482,-60.524073,571.720056,2384,388839,-15.55469,-29.370765,0.000001,66.58713,0,0,0,0.436332,0,10.597671,380.971443,-134.411959,-58.779694,-0.155547,-0.293708,0,0.665871,0,0
2.18,-1188894.86,-6195376.944,940955.3669,-480.152482,-60.524073,571.720056,2384,388839,-15.543743,-29.345968,0.000001,66.564135,0,0,0,0.436332,0,10.594011,380.971282,-69.387433,-129.254473,-0.155437,-0.29346,0,0.665641,0,0
2.19,-1188894.86,-6195376.944,940955.3669,-480.152482,-60.524073,571.720056,2384,388839,-15.532808,-29.321197,0.000001,66.541041,0,0,0,0.436332,0,10.590336,380.971122,25.248015,-144.511522,-0.155328,-0.293212,0,0.66541,0,0
2.2,-1188897.682,-6195391.584,941012.3951,-479.836033,-58.87243,568.84788,2384,388839,-15.521884,-29.296454,0.000001,66.517848,0,0,0,0.436332,0,10.586644,380.970962,109.079755,-98.093614,-0.155219,-0.292965,0,0.665178,0,0
2.21,-1188897.682,-6195391.584,941012.3951,-479.836033,-58.87243,568.84788,2384,388839,-15.510971,-29.271737,0.000001,66.494556,0,0,0,0.436332,0,10.582937,380.970802,146.367018,-9.856682,-0.15511,-0.292717,0,0.664946,0,0
2.22,-1188897.682,-6195391.584,941012.3951,-479.836033,-58.87243,568.84788,2384,388839,-15.50007,-29.247048,0.000001,66.471165,0,0,0,0.436332,0,10.579214,380.970642,121.264502,82.553539,-0.155001,-0.29247,0,0.664712,0,0
2.23,-1188897.682,-6195391.584,941012.3951,-479.836033,-58.87243,568.84788,2384,388839,-15.489179,-29.222387,0.000001,66.447675,0,0,0,0.436332,0,10.575476,380.970483,44.524681,139.776348,-0.154892,-0.292224,0,0.664477,0,0
2.24,-1188897.682,-6195391.584,941012.3951,-479.836033,-58.87243,568.84788,2384,388839,-15.478301,-29.197752,0.000001,66.424087,0,0,0,0.436332,0,10.571722,380.970324,-51.140752,137.492569,-0.154783,-0.291978,0,0.664241,0,0
2.25,-1188897.682,-6195391.584,941012.3951,-479.836033,-58.87243,568.84788,2384,388839,-15.467433,-29.173145,0.000001,66.4004,0,0,0,0.436332,0,10.567952,380.970165,-125.02549,76.732774,-0.154674,-0.291731,0,0.664004,0,0
2.26,-1188897.682,-6195391.584,941012.3951,-479.836033,-58.87243,568.84788,2384,388839,-15.456577,-29.148564,0.000001,66.376614,0,0,0,0.436332,0,10.564166,380.970007,-145.748958,-16.620521,-0.154566,-0.291486,0,0.663766,0,0
2.27,-1188897.682,-6195391.584,941012.3951,-479.836033,-58.87243,568.84788,2384,388839,-15.445732,-29.124011,0.000001,66.35273,0,0,0,0.436332,0,10.560365,380.969849,-104.56279,-102.885044,-0.154457,-0.29124,0,0.663527,0,0
2.28,-1188897.682,-6195391.584,941012.3951,-479.836033,-58.87243,568.84788,2384,388839,-15.434898,-29.099485,0.000001,66.328747,0,0,0,0.436332,0,10.556548,380.969691,-19.010182,-145.454568,-0.154349,-0.290995,0,0.663287,0,0
2.29,-1188897.682,-6195391.584,941012.3951,-479.836033,-58.87243,568.84788,2384,388839,-15.424076,-29.074986,0.000001,66.304667,0,0,0,0.436332,0,10.552715,380.969533,74.577902,-126.318107,-0.154241,-0.29075,0,0.663047,0,0
2.3,-1188897.682,-6195391.584,941012.3951,-479.836033,-58.87243,568.84788,2384,388839,-15.413265,-29.050514,0.000001,66.280488,0,0,0,0.436332,0,10.548867,380.969375,136.526881,-53.649306,-0.154133,-0.290505,0,0.662805,0,0
2.31,-1188897.682,-6195391.584,941012.3951,-479.836033,-58.87243,568.84788,2384,388839,-15.402465,-29.026069,0.000001,66.256211,0,0,0,0.436332,0,10.545003,380.969218,140.631062,41.718715,-0.154025,-0.290261,0,0.662562,0,0
2.32,-1188897.682,-6195391.584,941012.3951,-479.836033,-58.87243,568.84788,2384,388839,-15.391677,-29.001651,0.000001,66.231836,0,0,0,0.436332,0,10.541124,380.969061,85.212806,119.398636,-0.153917,-0.290017,0,0.662318,0,0
2.33,-1188897.682,-6195391.584,941012.3951,-479.836033,-58.87243,568.84788,2384,388839,-15.3809,-28.977259,0.000001,66.207363,0,0,0,0.436332,0,10.537229,380.968904,-6.227584,146.554371,-0.153809,-0.289773,0,0.662074,0,0
2.34,-1188897.682,-6195391.584,941012.3951,-479.836033,-58.87243,568.84788,2384,388839,-15.370134,-28.952895,0.000001,66.182793,0,0,0,0.436332,0,10.533319,380.968748,-95.005999,111.761069,-0.153701,-0.289529,0,0.661828,0,0
2.35,-1188897.682,-6195391.584,941012.3951,-479.836033,-58.87243,568.84788,2384,388839,-15.359379,-28.928558,0.000001,66.158124,0,0,0,0.436332,0,10.529392,380.968592,-143.630297,29.777919,-0.153594,-0.289286,0,0.661581,0,0
2.36,-1188897.682,-6195391.584,941012.3951,-479.836033,-58.87243,568.84788,2384,388839,-15.348636,-28.904248,0.000001,66.133358,0,0,0,0.436332,0,10.525451,380.968436,-131.621071,-64.745585,-0.153486,-0.289042,0,0.661334,0,0
2.37,-1188897.682,-6195391.584,941012.3951,-479.836033,-58.87243,568.84788,2384,388839,-15.337904,-28.879964,0.000001,66.108495,0,0,0,0.436332,0,10.521494,380.96828,-64.106714,-131.932319,-0.153379,-0.2888,0,0.661085,0,0
2.38,-1188897.682,-6195391.584,941012.3951,-479.836033,-58.87243,568.84788,2384,388839,-15.327183,-28.855708,0.000001,66.083534,0,0,0,0.436332,0,10.517521,380.968125,30.401604,-143.496553,-0.153272,-0.288557,0,0.660835,0,0
2.39,-1188897.682,-6195391.584,941012.3951,-479.836033,-58.87243,568.84788,2384,388839,-15.316474,-28.831478,0.000001,66.058476,0,0,0,0.436332,0,10.513533,380.96797,112.075505,-94.627217,-0.153165,-0.288315,0,0.660585,0,0
2.4,-1188903.231,-6195420.369,941125.596,-479.209258,-55.60117,563.177795,2384,388839,-15.305776,-28.807275,0.000001,66.03332,0,0,0,0.436332,0,10.509529,380.967815,146.558841,-5.953664,-0.153058,-0.288073,0,0.660333,0,0
2.41,-1188903.231,-6195420.369,941125.596,-479.209258,-55.60117,563.177795,2384,388839,-15.295089,-28.783099,0.000001,66.008068,0,0,0,0.436332,0,10.50551,380.96766,119.401467,85.193549,-0.152951,-0.287831,0,0.660081,0,0
2.42,-1188903.231,-6195420.369,941125.596,-479.209258,-55.60117,563.177795,2384,388839,-15.284413,-28.75895,0.000001,65.982718,0,0,0,0.436332,0,10.501476,380.967506,42.081031,140.511741,-0.152844,-0.287589,0,0.659827,0,0
2.43,-1188903.231,-6195420.369,941125.596,-479.209258,-55.60117,563.177795,2384,388839,-15.273749,-28.734827,0.000001,65.957272,0,0,0,0.436332,0,10.497426,380.967352,-52.882413,136.812004,-0.152737,-0.287348,0,0.659573,0,0
2.44,-1188903.231,-6195420.369,941125.596,-479.209258,-55.60117,563.177795,2384,388839,-15.263096,-28.710731,0.000001,65.931729,0,0,0,0.436332,0,10.493361,380.967198,-125.62525,75.710515,-0.152631,-0.287107,0,0.659317,0,0
2.45,-1188903.231,-6195420.369,941125.596,-479.209258,-55.60117,563.177795,2384,388839,-15.252454,-28.686662,0.000001,65.906089,0,0,0,0.436332,0,10.48928,380.967044,-145.673108,-17.112655,-0.152525,-0.286867,0,0.659061,0,0
2.46,-1188903.231,-6195420.369,941125.596,-479.209258,-55.60117,563.177795,2384,388839,-15.241824,-28.662619,0.000001,65.880352,0,0,0,0.436332,0,10.485184,380.966891,-104.684406,-102.734534,-0.152418,-0.286626,0,0.658804,0,0
2.47,-1188903.231,-6195420.369,941125.596,-479.209258,-55.60117,563.177795,2384,388839,-15.231205,-28.638604,0.000001,65.854519,0,0,0,0.436332,0,10.481072,380.966738,-19.885366,-145.318594,-0.152312,-0.286386,0,0.658545,0,0
2.48,-1188903.231,-6195420.369,941125.596,-479.209258,-55.60117,563.177795,2384,388839,-15.220597,-28.614614,0.000001,65.828589,0,0,0,0.436332,0,10.476945,380.966585,73.202659,-127.098404,-0.152206,-0.286146,0,0.658286,0,0
2.49,-1188903.231,-6195420.369,941125.596,-479.209258,-55.60117,563.177795,2384,388839,-15.21,-28.590652,0.000001,65.802563,0,0,0,0.436332,0,10.472803,380.966433,135.659416,-55.757232,-0.1521,-0.285907,0,0.658026,0,0
2.5,-1188905.959,-6195434.518,941181.7737,-478.898886,-53.981305,560.379362,2384,388839,-15.199414,-28.566716,0.000001,65.776441,0,0,0,0.436332,0,10.468646,380.96628,141.43162,38.847852,-0.151994,-0.285667,0,0.657764,0,0
2.51,-1188905.959,-6195434.518,941181.7737,-478.898886,-53.981305,560.379362,2384,388839,-15.18884,-28.542807,0.000001,65.750222,0,0,0,0.436332,0,10.464473,380.966128,88.173282,117.205988,-0.151888,-0.285428,0,0.657502,0,0
2.52,-1188905.959,-6195434.518,941181.7737,-478.898886,-53.981305,560.379362,2384,388839,-15.178277,-28.518924,0.000001,65.723908,0,0,0,0.436332,0,10.460285,380.965976,-1.838416,146.656417,-0.151783,-0.285189,0,0.657239,0,0
2.53,-1188905.959,-6195434.518,941181.7737,-478.898886,-53.981305,560.379362,2384,388839,-15.167725,-28.495068,0.000001,65.697498,0,0,0,0.436332,0,10.456082,380.965825,-91.052123,114.981339,-0.151677,-0.284951,0,0.656975,0,0
2.54,-1188905.959,-6195434.518,941181.7737,-478.898886,-53.981305,560.379362,2384,388839,-15.157185,-28.471238,0.000001,65.670992,0,0,0,0.436332,0,10.451863,380.965674,-142.319959,35.439241,-0.151572,-0.284712,0,0.65671,0,0
2.55,-1188905.959,-6195434.518,941181.7737,-478.898886,-53.981305,560.379362,2384,388839,-15.146656,-28.447434,0.000001,65.64439,0,0,0,0.436332,0,10.447629,380.965523,-134.353421,-58.819912,-0.151467,-0.284474,0,0.656444,0,0
2.56,-1188905.959,-6195434.518,941181.7737,-478.898886,-53.981305,560.379362,2384,388839,-15.136138,-28.423658,0.000001,65.617692,0,0,0,0.436332,0,10.44338,380.965372,-70.531957,-128.590748,-0.151361,-0.284237,0,0.656177,0,0
2.57,-1188905.959,-6195434.518,941181.7737,-478.898886,-53.981305,560.379362,2384,388839,-15.125631,-28.399907,0.000001,65.590899,0,0,0,0.436332,0,10.439116,380.965221,22.567422,-144.916398,-0.151256,-0.283999,0,0.655909,0,0
2.58,-1188905.959,-6195434.518,941181.7737,-478.898886,-53.981305,560.379362,2384,388839,-15.115135,-28.376183,0.000001,65.564011,0,0,0,0.436332,0,10.434836,380.965071,106.265417,-101.081284,-0.151151,-0.283762,0,0.65564,0,0
2.59,-1188905.959,-6195434.518,941181.7737,-478.898886,-53.981305,560.379362,2384,388839,-15.104651,-28.352486,0.000001,65.537027,0,0,0,0.436332,0,10.430542,380.964921,145.857042,-15.336298,-0.151047,-0.283525,0,0.65537,0,0
2.6,-1188908.655,-6195448.505,941237.6727,-478.590492,-52.371788,557.604989,2384,388839,-15.094178,-28.328814,0.000001,65.509948,0,0,0,0.436332,0,10.426232,380.964771,124.984649,76.733503,-0.150942,-0.283288,0,0.655099,0,0
2.61,-1188908.655,-6195448.505,941237.6727,-478.590492,-52.371788,557.604989,2384,388839,-15.083716,-28.30517,0.000001,65.482774,0,0,0,0.436332,0,10.421907,380.964622,52.361936,136.993193,-0.150837,-0.283052,0,0.654828,0,0
2.62,-1188908.655,-6195448.505,941237.6727,-478.590492,-52.371788,557.604989,2384,388839,-15.073265,-28.281551,0.000001,65.455505,0,0,0,0.436332,0,10.417567,380.964473,-41.900637,140.545218,-0.150733,-0.282816,0,0.654555,0,0
2.63,-1188908.655,-6195448.505,941237.6727,-478.590492,-52.371788,557.604989,2384,388839,-15.062826,-28.257959,0.000001,65.428141,0,0,0,0.436332,0,10.413212,380.964324,-118.804584,85.98725,-0.150628,-0.28258,0,0.654281,0,0
2.64,-1188908.655,-6195448.505,941237.6727,-478.590492,-52.371788,557.604989,2384,388839,-15.052397,-28.234393,0.000001,65.400682,0,0,0,0.436332,0,10.408842,380.964175,-146.59965,-4.073508,-0.150524,-0.282344,0,0.654007,0,0
2.65,-1188908.655,-6195448.505,941237.6727,-478.590492,-52.371788,557.604989,2384,388839,-15.04198,-28.210853,0.000001,65.373128,0,0,0,0.436332,0,10.404457,380.964026,-113.870237,-92.419343,-0.15042,-0.282109,0,0.653731,0,0
2.66,-1188908.655,-6195448.505,941237.6727,-478.590492,-52.371788,557.604989,2384,388839,-15.031575,-28.18734,0.000001,65.34548,0,0,0,0.436332,0,10.400056,380.963878,-34.187216,-142.613867,-0.150316,-0.281873,0,0.653455,0,0
2.67,-1188908.655,-6195448.505,941237.6727,-478.590492,-52.371788,557.604989,2384,388839,-15.02118,-28.163853,0.000001,65.317738,0,0,0,0.436332,0,10.395641,380.96373,59.555031,-134.016396,-0.150212,-0.281639,0,0.653177,0,0
2.68,-1188908.655,-6195448.505,941237.6727,-478.590492,-52.371788,557.604989,2384,388839,-15.010796,-28.140392,0.000001,65.289901,0,0,0,0.436332,0,10.39121,380.963583,128.738656,-70.23724,-0.150108,-0.281404,0,0.652899,0,0
2.69,-1188908.655,-6195448.505,941237.6727,-478.590492,-52.371788,557.604989,2384,388839,-15.000424,-28.116957,0.000001,65.26197,0,0,0,0.436332,0,10.386765,380.963435,144.928049,22.416233,-0.150004,-0.28117,0,0.65262,0,0
2.7,-1188911.321,-6195462.332,941293.2955,-478.284054,-50.772499,554.854417,2384,388839,-14.990063,-28.093548,0.000001,65.233945,0,0,0,0.436332,0,10.382305,380.963288,101.531348,105.819318,-0.149901,-0.280935,0,0.652339,0,0
2.71,-1188911.321,-6195462.332,941293.2955,-478.284054,-50.772499,554.854417,2384,388839,-14.979713,-28.070165,0.000001,65.205825,0,0,0,0.436332,0,10.377829,380.963141,16.446087,145.724345,-0.149797,-0.280702,0,0.652058,0,0
2.72,-1188911.321,-6195462.332,941293.2955,-478.284054,-50.772499,554.854417,2384,388839,-14.969375,-28.046809,0.000001,65.177612,0,0,0,0.436332,0,10.373339,380.962994,-75.356516,125.806081,-0.149694,-0.280468,0,0.651776,0,0
2.73,-1188911.321,-6195462.332,941293.2955,-478.284054,-50.772499,554.854417,2384,388839,-14.959047,-28.023478,0.000001,65.149305,0,0,0,0.436332,0,10.368834,380.962848,-136.221993,54.305241,-0.14959,-0.280235,0,0.651493,0,0
2.74,-1188911.321,-6195462.332,941293.2955,-478.284054,-50.772499,554.854417,2384,388839,-14.948731,-28.000174,0.000001,65.120904,0,0,0,0.436332,0,10.364314,380.962702,-141.249291,-39.418835,-0.149487,-0.280002,0,0.651209,0,0
2.75,-1188911.321,-6195462.332,941293.2955,-478.284054,-50.772499,554.854417,2384,388839,-14.938426,-27.976896,0.000001,65.09241,0,0,0,0.436332,0,10.359779,380.962556,-88.448605,-116.969088,-0.149384,-0.279769,0,0.650924,0,0
2.76,-1188911.321,-6195462.332,941293.2955,-478.284054,-50.772499,554.854417,2384,388839,-14.928132,-27.953643,0.000001,65.063822,0,0,0,0.436332,0,10.355229,380.96241,0.511092,-146.643713,-0.149281,-0.279536,0,0.650638,0,0
2.77,-1188911.321,-6195462.332,941293.2955,-478.284054,-50.772499,554.854417,2384,388839,-14.917849,-27.930417,0.000001,65.03514,0,0,0,0.436332,0,10.350664,380.962265,89.227341,-116.373701,-0.149178,-0.279304,0,0.650351,0,0
2.78,-1188911.321,-6195462.332,941293.2955,-478.284054,-50.772499,554.854417,2384,388839,-14.907577,-27.907217,0.000001,65.006366,0,0,0,0.436332,0,10.346084,380.96212,141.472857,-38.594097,-0.149076,-0.279072,0,0.650064,0,0
2.79,-1188911.321,-6195462.332,941293.2955,-478.284054,-50.772499,554.854417,2384,388839,-14.897317,-27.884042,0.000001,64.977498,0,0,0,0.436332,0,10.34149,380.961975,135.97649,54.901591,-0.148973,-0.27884,0,0.649775,0,0
2.8,-1188911.321,-6195462.332,941293.2955,-478.284054,-50.772499,554.854417,2384,388839,-14.887067,-27.860894,0.000001,64.948537,0,0,0,0.436332,0,10.336881,380.96183,75.050857,125.979667,-0.148871,-0.278609,0,0.649485,0,0
2.81,-1188911.321,-6195462.332,941293.2955,-478.284054,-50.772499,554.854417,2384,388839,-14.876829,-27.837771,0.000001,64.919483,0,0,0,0.436332,0,10.332257,380.961686,-16.419295,145.717644,-0.148768,-0.278378,0,0.649195,0,0
2.82,-1188911.321,-6195462.332,941293.2955,-478.284054,-50.772499,554.854417,2384,388839,-14.866602,-27.814674,0.000001,64.890337,0,0,0,0.436332,0,10.327618,380.961541,-101.171359,106.147532,-0.148666,-0.278147,0,0.648903,0,0
2.83,-1188911.321,-6195462.332,941293.2955,-478.284054,-50.772499,554.854417,2384,388839,-14.856386,-27.791603,0.000001,64.861098,0,0,0,0.436332,0,10.322964,380.961398,-144.753359,23.433421,-0.148564,-0.277916,0,0.648611,0,0
2.84,-1188911.321,-6195462.332,941293.2955,-478.284054,-50.772499,554.854417,2384,388839,-14.846182,-27.768558,0.000001,64.831766,0,0,0,0.436332,0,10.318296,380.961254,-129.512196,-68.7675,-0.148462,-0.277686,0,0.648318,0,0
2.85,-1188911.321,-6195462.332,941293.2955,-478.284054,-50.772499,554.854417,2384,388839,-14.835988,-27.745539,0.000001,64.802341,0,0,0,0.436332,0,10.313613,380.96111,-61.708891,-133.019205,-0.14836,-0.277455,0,0.648023,0,0
2.86,-1188911.321,-6195462.332,941293.2955,-478.284054,-50.772499,554.854417,2384,388839,-14.825805,-27.722545,0.000001,64.772824,0,0,0,0.436332,0,10.308915,380.960967,31.092556,-143.300618,-0.148258,-0.277225,0,0.647728,0,0
2.87,-1188911.321,-6195462.332,941293.2955,-478.284054,-50.772499,554.854417,2384,388839,-14.815634,-27.699577,0.000001,64.743215,0,0,0,0.436332,0,10.304203,380.960824,111.258424,-95.514896,-0.148156,-0.276996,0,0.647432,0,0
2.88,-1188911.321,-6195462.332,941293.2955,-478.284054,-50.772499,554.854417,2384,388839,-14.805474,-27.676635,0.000001,64.713514,0,0,0,0.436332,0,10.299476,380.960682,146.351548,-9.081576,-0.148055,-0.276766,0,0.647135,0,0
2.89,-1188911.321,-6195462.332,941293.2955,-478.284054,-50.772499,554.854417,2384,388839,-14.795325,-27.653719,0.000001,64.683721,0,0,0,0.436332,0,10.294734,380.960539,122.235881,80.989868,-0.147953,-0.276537,0,0.646837,0,0
2.9,-1188916.561,-6195489.508,941403.7217,-477.676954,-47.604129,549.423656,2384,388839,-14.785187,-27.630828,0.000001,64.653836,0,0,0,0.436332,0,10.289978,380.960397,48.733383,138.295862,-0.147852,-0.276308,0,0.646538,0,0
2.91,-1188916.561,-6195489.508,941403.7217,-477.676954,-47.604129,549.423656,2384,388839,-14.77506,-27.607963,0.000001,64.623859,0,0,0,0.436332,0,10.285207,380.960255,-44.415138,139.741556,-0.147751,-0.27608,0,0.646239,0,0
2.92,-1188916.561,-6195489.508,941403.7217,-477.676954,-47.604129,549.423656,2384,388839,-14.764944,-27.585124,0.000001,64.59379,0,0,0,0.436332,0,10.280421,380.960114,-119.608884,84.816512,-0.147649,-0.275851,0,0.645938,0,0
2.93,-1188916.561,-6195489.508,941403.7217,-477.676954,-47.604129,549.423656,2384,388839,-14.75484,-27.56231,0.000001,64.56363,0,0,0,0.436332,0,10.275621,380.959972,-146.56609,-4.26924,-0.147548,-0.275623,0,0.645636,0,0
2.94,-1188916.561,-6195489.508,941403.7217,-477.676954,-47.604129,549.423656,2384,388839,-14.744746,-27.539522,0.000001,64.533378,0,0,0,0.436332,0,10.270806,380.959831,-114.495271,-91.599112,-0.147447,-0.275395,0,0.645334,0,0
2.95,-1188916.561,-6195489.508,941403.7217,-477.676954,-47.604129,549.423656,2384,388839,-14.734663,-27.516759,0.000001,64.503035,0,0,0,0.436332,0,10.265977,380.95969,-36.376273,-142.042425,-0.147347,-0.275168,0,0.64503,0,0
2.96,-1188916.561,-6195489.508,941403.7217,-477.676954,-47.604129,549.423656,2384,388839,-14.724592,-27.494022,0.000001,64.472601,0,0,0,0.436332,0,10.261133,380.95955,56.331137,-135.372842,-0.147246,-0.27494,0,0.644726,0,0
2.97,-1188916.561,-6195489.508,941403.7217,-477.676954,-47.604129,549.423656,2384,388839,-14.714532,-27.47131,0.000001,64.442076,0,0,0,0.436332,0,10.256275,380.959409,126.378941,-74.344377,-0.147145,-0.274713,0,0.644421,0,0
2.98,-1188916.561,-6195489.508,941403.7217,-477.676954,-47.604129,549.423656,2384,388839,-14.704483,-27.448624,0.000001,64.411459,0,0,0,0.436332,0,10.251402,380.959269,145.693733,16.485731,-0.147045,-0.274486,0,0.644115,0,0
2.99,-1188916.561,-6195489.508,941403.7217,-477.676954,-47.604129,549.423656,2384,388839,-14.694444,-27.425964,0.000001,64.380752,0,0,0,0.436332,0,10.246515,380.959129,106.601127,100.669573,-0.146944,-0.27426,0,0.643808,0,0
3,-1189370.913,-6195416.147,941458.5299,-477.379603,-46.000002,546.742961,2384,388840,-14.684417,-27.403328,0.000001,64.349954,0,0,0,0.436332,0,10.241613,380.95899,24.834739,144.503007,-0.146844,-0.274033,0,0.6435,0,0
3.01,-1189370.913,-6195416.147,941458.5299,-477.379603,-46.000002,546.742961,2384,388840,-14.674401,-27.380719,0.000001,64.319065,0,0,0,0.436332,0,10.236697,380.95885,-66.833356,130.502514,-0.146744,-0.273807,0,0.643191,0,0
3.02,-1189370.913,-6195416.147,941458.5299,-477.379603,-46.000002,546.742961,2384,388840,-14.664397,-27.358134,0.000001,64.288086,0,0,0,0.436332,0,10.231767,380.958711,-131.74736,64.342502,-0.146644,-0.273581,0,0.642881,0,0
3.03,-1189370.913,-6195416.147,941458.5299,-477.379603,-46.000002,546.742961,2384,388840,-14.654403,-27.335575,0.000001,64.257017,0,0,0,0.436332,0,10.226822,380.958572,-144.019532,-27.484894,-0.146544,-0.273356,0,0.64257,0,0
3.04,-1189370.913,-6195416.147,941458.5299,-477.379603,-46.000002,546.742961,2384,388840,-14.64442,-27.313042,0.000001,64.225857,0,0,0,0.436332,0,10.221863,380.958434,-98.824933,-108.306964,-0.146444,-0.27313,0,0.642259,0,0
3.05,-1189370.913,-6195416.147,941458.5299,-477.379603,-46.000002,546.742961,2384,388840,-14.634448,-27.290533,0.000001,64.194607,0,0,0,0.436332,0,10.216889,380.958295,-14.25702,-145.92198,-0.146344,-0.272905,0,0.641946,0,0
3.06,-1189370.913,-6195416.147,941458.5299,-477.379603,-46.000002,546.742961,2384,388840,-14.624487,-27.26805,0.000001,64.163267,0,0,0,0.436332,0,10.211901,380.958157,75.952137,-125.409253,-0.146245,-0.272681,0,0.641633,0,0
3.07,-1189370.913,-6195416.147,941458.5299,-477.379603,-46.000002,546.742961,2384,388840,-14.614538,-27.245592,0.000001,64.131837,0,0,0,0.436332,0,10.206899,380.958019,135.903827,-55.009807,-0.146145,-0.272456,0,0.641318,0,0
3.08,-1189370.913,-6195416.147,941458.5299,-477.379603,-46.000002,546.742961,2384,388840,-14.604599,-27.22316,0.000001,64.100317,0,0,0,0.436332,0,10.201882,380.957882,141.809622,37.224744,-0.146046,-0.272232,0,0.641003,0,0
3.09,-1189370.913,-6195416.147,941458.5299,-477.379603,-46.000002,546.742961,2384,388840,-14.594672,-27.200752,0.000001,64.068708,0,0,0,0.436332,0,10.196852,380.957744,91.398917,114.636862,-0.145947,-0.272008,0,0.640687,0,0
3.1,-1189373.458,-6195429.342,941513.0711,-477.080648,-44.440465,544.085054,2384,388840,-14.584755,-27.17837,0.000001,64.037009,0,0,0,0.436332,0,10.191806,380.957607,4.74938,146.535106,-0.145848,-0.271784,0,0.64037,0,0
3.11,-1189373.458,-6195429.342,941513.0711,-477.080648,-44.440465,544.085054,2384,388840,-14.574849,-27.156013,0.000001,64.00522,0,0,0,0.436332,0,10.186747,380.95747,-83.744624,120.339742,-0.145748,-0.27156,0,0.640052,0,0
3.12,-1189373.458,-6195429.342,941513.0711,-477.080648,-44.440465,544.085054,2384,388840,-14.564955,-27.133682,0.000001,63.973343,0,0,0,0.436332,0,10.181674,380.957334,-139.039076,46.504548,-0.14565,-0.271337,0,0.639733,0,0
3.13,-1189373.458,-6195429.342,941513.0711,-477.080648,-44.440465,544.085054,2384,388840,-14.555071,-27.111375,0.000001,63.941376,0,0,0,0.436332,0,10.176586,380.957197,-139.306249,-45.694955,-0.145551,-0.271114,0,0.639414,0,0
3.14,-1189373.458,-6195429.342,941513.0711,-477.080648,-44.440465,544.085054,2384,388840,-14.545199,-27.089093,0.000001,63.90932,0,0,0,0.436332,0,10.171484,380.957061,-84.517845,-119.794474,-0.145452,-0.270891,0,0.639093,0,0
3.15,-1189373.458,-6195429.342,941513.0711,-477.080648,-44.440465,544.085054,2384,388840,-14.535337,-27.066837,0.000001,63.877175,0,0,0,0.436332,0,10.166368,380.956925,3.616364,-146.562705,-0.145353,-0.270668,0,0.638772,0,0
3.16,-1189373.458,-6195429.342,941513.0711,-477.080648,-44.440465,544.085054,2384,388840,-14.525487,-27.044606,0.000001,63.844941,0,0,0,0.436332,0,10.161238,380.95679,90.284846,-115.507894,-0.145255,-0.270446,0,0.638449,0,0
3.17,-1189373.458,-6195429.342,941513.0711,-477.080648,-44.440465,544.085054,2384,388840,-14.515647,-27.022399,0.000001,63.812619,0,0,0,0.436332,0,10.156094,380.956654,141.336738,-38.949663,-0.145156,-0.270224,0,0.638126,0,0
3.18,-1189373.458,-6195429.342,941513.0711,-477.080648,-44.440465,544.085054,2384,388840,-14.505819,-27.000218,0.000001,63.780208,0,0,0,0.436332,0,10.150935,380.956519,136.724665,52.907833,-0.145058,-0.270002,0,0.637802,0,0
3.19,-1189373.458,-6195429.342,941513.0711,-477.080648,-44.440465,544.085054,2384,388840,-14.496001,-26.978061,0.000001,63.747709,0,0,0,0.436332,0,10.145763,380.956384,78.342016,123.915795,-0.14496,-0.269781,0,0.637477,0,0
3.2,-1189375.973,-6195442.381,941567.3476,-476.783537,-42.890572,541.449688,2384,388840,-14.486195,-26.95593,0.000001,63.715121,0,0,0,0.436332,0,10.140576,380.95625,-10.795232,146.204589,-0.144862,-0.269559,0,0.637151,0,0
3.21,-1189375.973,-6195442.381,941567.3476,-476.783537,-42.890572,541.449688,2384,388840,-14.476399,-26.933823,0.000001,63.682445,0,0,0,0.436332,0,10.135376,380.956115,-95.654793,111.095468,-0.144764,-0.269338,0,0.636824,0,0
3.22,-1189375.973,-6195442.381,941567.3476,-476.783537,-42.890572,541.449688,2384,388840,-14.466615,-26.911742,0.000001,63.649681,0,0,0,0.436332,0,10.130161,380.955981,-142.966797,32.438571,-0.144666,-0.269117,0,0.636497,0,0
3.23,-1189375.973,-6195442.381,941567.3476,-476.783537,-42.890572,541.449688,2384,388840,-14.456841,-26.889685,0.000001,63.616829,0,0,0,0.436332,0,10.124933,380.955847,-134.251499,-58.889935,-0.144568,-0.268897,0,0.636168,0,0
3.24,-1189375.973,-6195442.381,941567.3476,-476.783537,-42.890572,541.449688,2384,388840,-14.447078,-26.867653,0.000001,63.58389,0,0,0,0.436332,0,10.11969,380.955713,-73.000968,-127.130138,-0.144471,-0.268677,0,0.635839,0,0
3.25,-1189375.973,-6195442.381,941567.3476,-476.783537,-42.890572,541.449688,2384,388840,-14.437327,-26.845646,0.000001,63.550862,0,0,0,0.436332,0,10.114434,380.95558,16.76178,-145.636465,-0.144373,-0.268456,0,0.635509,0,0
3.26,-1189375.973,-6195442.381,941567.3476,-476.783537,-42.890572,541.449688,2384,388840,-14.427586,-26.823664,0.000001,63.517748,0,0,0,0.436332,0,10.109163,380.955447,99.936621,-107.253592,-0.144276,-0.268237,0,0.635177,0,0
3.27,-1189375.973,-6195442.381,941567.3476,-476.783537,-42.890572,541.449688,2384,388840,-14.417856,-26.801707,0.000001,63.484545,0,0,0,0.436332,0,10.103879,380.955314,144.080437,-27.04095,-0.144179,-0.268017,0,0.634845,0,0
3.28,-1189375.973,-6195442.381,941567.3476,-476.783537,-42.890572,541.449688,2384,388840,-14.408137,-26.779774,0.000001,63.451256,0,0,0,0.436332,0,10.098581,380.955181,132.04417,63.67454,-0.144081,-0.267798,0,0.634513,0,0
3.29,-1189375.973,-6195442.381,941567.3476,-476.783537,-42.890572,541.449688,2384,388840,-14.398429,-26.757866,0.000001,63.417879,0,0,0,0.436332,0,10.093269,380.955049,68.597454,129.553941,-0.143984,-0.267579,0,0.634179,0,0
3.3,-1189375.973,-6195442.381,941567.3476,-476.783537,-42.890572,541.449688,2384,388840,-14.388732,-26.735983,0.000001,63.384415,0,0,0,0.436332,0,10.087943,380.954917,-21.503384,145.00746,-0.143887,-0.26736,0,0.633844,0,0
3.31,-1189375.973,-6195442.381,941567.3476,-476.783537,-42.890572,541.449688,2384,388840,-14.379046,-26.714125,0.000001,63.350864,0,0,0,0.436332,0,10.082603,380.954785,-103.205995,104.104786,-0.14379,-0.267141,0,0.633509,0,0
3.32,-1189375.973,-6195442.381,941567.3476,-476.783537,-42.890572,541.449688,2384,388840,-14.369371,-26.692291,0.000001,63.317227,0,0,0,0.436332,0,10.07725,380.954653,-144.806059,22.808198,-0.143694,-0.266923,0,0.633172,0,0
3.33,-1189375.973,-6195442.381,941567.3476,-476.783537,-42.890572,541.449688,2384,388840,-14.359707,-26.670482,0.000001,63.283502,0,0,0,0.436332,0,10.071882,380.954521,-130.230962,-67.295099,-0.143597,-0.266705,0,0.632835,0,0
3.34,-1189375.973,-6195442.381,941567.3476,-476.783537,-42.890572,541.449688,2384,388840,-14.350053,-26.648697,0.000001,63.249692,0,0,0,0.436332,0,10.066501,380.95439,-65.211306,-131.285736,-0.143501,-0.266487,0,0.632497,0,0
3.35,-1189375.973,-6195442.381,941567.3476,-476.783537,-42.890572,541.449688,2384,388840,-14.340411,-26.626937,0.000001,63.215795,0,0,0,0.436332,0,10.061106,380.954259,25.014326,-144.438457,-0.143404,-0.266269,0,0.632158,0,0
3.36,-1189375.973,-6195442.381,941567.3476,-476.783537,-42.890572,541.449688,2384,388840,-14.330779,-26.605202,0.000001,63.181811,0,0,0,0.436332,0,10.055698,380.954129,105.526544,-101.745066,-0.143308,-0.266052,0,0.631818,0,0
3.37,-1189375.973,-6195442.381,941567.3476,-476.783537,-42.890572,541.449688,2384,388840,-14.321159,-26.583491,0.000001,63.147742,0,0,0,0.436332,0,10.050275,380.953998,145.246192,-19.778252,-0.143212,-0.265835,0,0.631477,0,0
3.38,-1189375.973,-6195442.381,941567.3476,-476.783537,-42.890572,541.449688,2384,388840,-14.311549,-26.561805,0.000001,63.113586,0,0,0,0.436332,0,10.044839,380.953868,128.911405,69.779732,-0.143115,-0.265618,0,0.631136,0,0
3.39,-1189375.973,-6195442.381,941567.3476,-476.783537,-42.890572,541.449688,2384,388840,-14.30195,-26.540143,0.000001,63.079345,0,0,0,0.436332,0,10.03939,380.953738,62.902864,132.402104,-0.143019,-0.265401,0,0.630793,0,0
3.4,-1189380.915,-6195467.998,941675.1157,-476.194762,-39.819264,536.245593,2384,388840,-14.292362,-26.518505,0.000001,63.045018,0,0,0,0.436332,0,10.033926,380.953608,-27.290851,144.020911,-0.142924,-0.265185,0,0.63045,0,0
3.41,-1189380.915,-6195467.998,941675.1157,-476.194762,-39.819264,536.245593,2384,388840,-14.282785,-26.496892,0.000001,63.010605,0,0,0,0.436332,0,10.028449,380.953479,-106.945369,100.245837,-0.142828,-0.264969,0,0.630106,0,0
3.42,-1189380.915,-6195467.998,941675.1157,-476.194762,-39.819264,536.245593,2384,388840,-14.273218,-26.475304,0.000001,62.976107,0,0,0,0.436332,0,10.022959,380.95335,-145.475088,17.979567,-0.142732,-0.264753,0,0.629761,0,0
3.43,-1189380.915,-6195467.998,941675.1157,-476.194762,-39.819264,536.245593,2384,388840,-14.263663,-26.45374,0.000001,62.941523,0,0,0,0.436332,0,10.017455,380.953221,-128.156638,-71.146813,-0.142637,-0.264537,0,0.629415,0,0
3.44,-1189380.915,-6195467.998,941675.1157,-476.194762,-39.819264,536.245593,2384,388840,-14.254118,-26.4322,0.000001,62.906854,0,0,0,0.436332,0,10.011937,380.953092,-61.7157,-132.954472,-0.142541,-0.264322,0,0.629069,0,0
3.45,-1189380.915,-6195467.998,941675.1157,-476.194762,-39.819264,536.245593,2384,388840,-14.244585,-26.410685,0.000001,62.872101,0,0,0,0.436332,0,10.006406,380.952963,28.327302,-143.81589,-0.142446,-0.264107,0,0.628721,0,0
3.46,-1189380.915,-6195467.998,941675.1157,-476.194762,-39.819264,536.245593,2384,388840,-14.235062,-26.389194,0.000001,62.837262,0,0,0,0.436332,0,10.000861,380.952835,107.48955,-99.655255,-0.142351,-0.263892,0,0.628373,0,0
3.47,-1189380.915,-6195467.998,941675.1157,-476.194762,-39.819264,536.245593,2384,388840,-14.22555,-26.367727,0.000001,62.802338,0,0,0,0.436332,0,9.995303,380.952707,145.536779,-17.434059,-0.142255,-0.263677,0,0.628023,0,0
3.48,-1189380.915,-6195467.998,941675.1157,-476.194762,-39.819264,536.245593,2384,388840,-14.216048,-26.346284,0.000001,62.76733,0,0,0,0.436332,0,9.989731,380.952579,128.009486,71.401673,-0.14216,-0.263463,0,0.627673,0,0
3.49,-1189380.915,-6195467.998,941675.1157,-476.194762,-39.819264,536.245593,2384,388840,-14.206558,-26.324866,0.000001,62.732237,0,0,0,0.436332,0,9.984146,380.952452,61.678433,132.966635,-0.142066,-0.263249,0,0.627322,0,0
3.5,-1189383.342,-6195480.577,941728.6116,-475.903055,-38.297626,533.676378,2384,388840,-14.197078,-26.303472,0.000001,62.69706,0,0,0,0.436332,0,9.978547,380.952324,-28.113443,143.853109,-0.141971,-0.263035,0,0.626971,0,0
3.51,-1189383.342,-6195480.577,941728.6116,-475.903055,-38.297626,533.676378,2384,388840,-14.18761,-26.282102,0.000001,62.661799,0,0,0,0.436332,0,9.972935,380.952197,-107.163602,99.998863,-0.141876,-0.262821,0,0.626618,0,0
3.52,-1189383.342,-6195480.577,941728.6116,-475.903055,-38.297626,533.676378,2384,388840,-14.178152,-26.260757,0.000001,62.626453,0,0,0,0.436332,0,9.96731,380.952071,-145.443439,18.158859,-0.141782,-0.262608,0,0.626265,0,0
3.53,-1189383.342,-6195480.577,941728.6116,-475.903055,-38.297626,533.676378,2384,388840,-14.168705,-26.239435,0.000001,62.591024,0,0,0,0.436332,0,9.961671,380.951944,-128.484069,-70.534461,-0.141687,-0.262394,0,0.62591,0,0
3.54,-1189383.342,-6195480.577,941728.6116,-475.903055,-38.297626,533.676378,2384,388840,-14.159268,-26.218138,0.000001,62.55551,0,0,0,0.436332,0,9.956019,380.951818,-62.80542,-132.432902,-0.141593,-0.262181,0,0.625555,0,0
3.55,-1189383.342,-6195480.577,941728.6116,-475.903055,-38.297626,533.676378,2384,388840,-14.149843,-26.196865,0.000001,62.519913,0,0,0,0.436332,0,9.950353,380.951692,26.633075,-144.129809,-0.141498,-0.261969,0,0.625199,0,0
3.56,-1189383.342,-6195480.577,941728.6116,-475.903055,-38.297626,533.676378,2384,388840,-14.140428,-26.175615,0.000001,62.484232,0,0,0,0.436332,0,9.944674,380.951566,105.947887,-101.279297,-0.141404,-0.261756,0,0.624842,0,0
3.57,-1189383.342,-6195480.577,941728.6116,-475.903055,-38.297626,533.676378,2384,388840,-14.131024,-26.15439,0.000001,62.448468,0,0,0,0.436332,0,9.938982,380.95144,145.173972,-20.166737,-0.14131,-0.261544,0,0.624485,0,0
3.58,-1189383.342,-6195480.577,941728.6116,-475.903055,-38.297626,533.676378,2384,388840,-14.121631,-26.133189,0.000001,62.412621,0,0,0,0.436332,0,9.933277,380.951315,129.564757,68.519208,-0.141216,-0.261332,0,0.624126,0,0
3.59,-1189383.342,-6195480.577,941728.6116,-475.903055,-38.297626,533.676378,2384,388840,-14.112248,-26.112012,0.000001,62.37669,0,0,0,0.436332,0,9.927559,380.95119,65.096213,131.316869,-0.141122,-0.26112,0,0.623767,0,0
3.6,-1189385.739,-6195493.004,941781.8517,-475.613107,-36.785186,531.128731,2384,388840,-14.102877,-26.090859,0.000001,62.340677,0,0,0,0.436332,0,9.921827,380.951065,-23.864045,144.609382,-0.141029,-0.260909,0,0.623407,0,0
3.61,-1189385.739,-6195493.004,941781.8517,-475.613107,-36.785186,531.128731,2384,388840,-14.093516,-26.06973,0.000001,62.30458,0,0,0,0.436332,0,9.916082,380.95094,-103.798018,103.474956,-0.140935,-0.260697,0,0.623046,0,0
3.62,-1189385.739,-6195493.004,941781.8517,-475.613107,-36.785186,531.128731,2384,388840,-14.084166,-26.048624,0.000001,62.268401,0,0,0,0.436332,0,9.910324,380.950816,-144.672785,23.465072,-0.140842,-0.260486,0,0.622684,0,0
3.63,-1189385.739,-6195493.004,941781.8517,-475.613107,-36.785186,531.128731,2384,388840,-14.074826,-26.027543,0.000001,62.232139,0,0,0,0.436332,0,9.904553,380.950692,-131.204445,-65.314221,-0.140748,-0.260275,0,0.622321,0,0
3.64,-1189385.739,-6195493.004,941781.8517,-475.613107,-36.785186,531.128731,2384,388840,-14.065497,-26.006485,0.000001,62.195795,0,0,0,0.436332,0,9.898768,380.950568,-68.533642,-129.550852,-0.140655,-0.260065,0,0.621958,0,0
3.65,-1189385.739,-6195493.004,941781.8517,-475.613107,-36.785186,531.128731,2384,388840,-14.056179,-25.985452,0.000001,62.159368,0,0,0,0.436332,0,9.892971,380.950444,19.779775,-145.219742,-0.140562,-0.259855,0,0.621594,0,0
3.66,-1189385.739,-6195493.004,941781.8517,-475.613107,-36.785186,531.128731,2384,388840,-14.046872,-25.964442,0.000001,62.122859,0,0,0,0.436332,0,9.88716,380.950321,100.645378,-106.537556,-0.140469,-0.259644,0,0.621229,0,0
3.67,-1189385.739,-6195493.004,941781.8517,-475.613107,-36.785186,531.128731,2384,388840,-14.037576,-25.943456,0.000001,62.086268,0,0,0,0.436332,0,9.881336,380.950198,143.848838,-28.053249,-0.140376,-0.259435,0,0.620863,0,0
3.68,-1189385.739,-6195493.004,941781.8517,-475.613107,-36.785186,531.128731,2384,388840,-14.02829,-25.922494,0.000001,62.049595,0,0,0,0.436332,0,9.8755,380.950075,133.322107,60.863936,-0.140283,-0.259225,0,0.620496,0,0
3.69,-1189385.739,-6195493.004,941781.8517,-475.613107,-36.785186,531.128731,2384,388840,-14.019015,-25.901555,0.000001,62.012841,0,0,0,0.436332,0,9.86965,380.949952,73.080466,127.036132,-0.14019,-0.259016,0,0.620128,0,0
3.7,-1189388.108,-6195505.28,941834.8381,-475.324897,-35.281834,528.602413,2384,388840,-14.00975,-25.88064,0.000001,61.976005,0,0,0,0.436332,0,9.863787,380.94983,-14.352462,145.851536,-0.140098,-0.258806,0,0.61976,0,0
3.71,-1189388.108,-6195505.28,941834.8381,-475.324897,-35.281834,528.602413,2384,388840,-14.000497,-25.859749,0.000001,61.939087,0,0,0,0.436332,0,9.857912,380.949707,-96.398926,110.388592,-0.140005,-0.258597,0,0.619391,0,0
3.72,-1189388.108,-6195505.28,941834.8381,-475.324897,-35.281834,528.602413,2384,388840,-13.991254,-25.838882,0.000001,61.902088,0,0,0,0.436332,0,9.852023,380.949586,-142.57513,33.918391,-0.139913,-0.258389,0,0.619021,0,0
3.73,-1189388.108,-6195505.28,941834.8381,-475.324897,-35.281834,528.602413,2384,388840,-13.982021,-25.818038,0.000001,61.865008,0,0,0,0.436332,0,9.846122,380.949464,-135.799778,-55.102414,-0.13982,-0.25818,0,0.61865,0,0
3.74,-1189388.108,-6195505.28,941834.8381,-475.324897,-35.281834,528.602413,2384,388840,-13.9728,-25.797218,0.000001,61.827846,0,0,0,0.436332,0,9.840207,380.949342,-78.67458,-123.644237,-0.139728,-0.257972,0,0.618278,0,0
3.75,-1189388.108,-6195505.28,941834.8381,-475.324897,-35.281834,528.602413,2384,388840,-13.963589,-25.776422,0.000001,61.790604,0,0,0,0.436332,0,9.83428,380.949221,7.558089,-146.356391,-0.139636,-0.257764,0,0.617906,0,0
3.76,-1189388.108,-6195505.28,941834.8381,-475.324897,-35.281834,528.602413,2384,388840,-13.954388,-25.755649,0.000001,61.753281,0,0,0,0.436332,0,9.82834,380.9491,90.948562,-114.914786,-0.139544,-0.257556,0,0.617533,0,0
3.77,-1189388.108,-6195505.28,941834.8381,-475.324897,-35.281834,528.602413,2384,388840,-13.945199,-25.734899,0.000001,61.715877,0,0,0,0.436332,0,9.822387,380.948979,140.688922,-41.02935,-0.139452,-0.257349,0,0.617159,0,0
3.78,-1189388.108,-6195505.28,941834.8381,-475.324897,-35.281834,528.602413,2384,388840,-13.93602,-25.714173,0.000001,61.678393,0,0,0,0.436332,0,9.816421,380.948859,138.47914,47.95873,-0.13936,-0.257142,0,0.616784,0,0
3.79,-1189388.108,-6195505.28,941834.8381,-475.324897,-35.281834,528.602413,2384,388840,-13.926851,-25.693471,0.000001,61.640829,0,0,0,0.436332,0,9.810443,380.948739,85.222824,119.219604,-0.139269,-0.256935,0,0.616408,0,0
3.8,-1189388.108,-6195505.28,941834.8381,-475.324897,-35.281834,528.602413,2384,388840,-13.917694,-25.672792,0.000001,61.603184,0,0,0,0.436332,0,9.804451,380.948619,0.616608,146.54554,-0.139177,-0.256728,0,0.616032,0,0
3.81,-1189388.108,-6195505.28,941834.8381,-475.324897,-35.281834,528.602413,2384,388840,-13.908547,-25.652137,0.000001,61.56546,0,0,0,0.436332,0,9.798447,380.948499,-84.170357,119.962738,-0.139085,-0.256521,0,0.615655,0,0
3.82,-1189388.108,-6195505.28,941834.8381,-475.324897,-35.281834,528.602413,2384,388840,-13.89941,-25.631505,0.000001,61.527655,0,0,0,0.436332,0,9.79243,380.948379,-137.99309,49.328964,-0.138994,-0.256315,0,0.615277,0,0
3.83,-1189388.108,-6195505.28,941834.8381,-475.324897,-35.281834,528.602413,2384,388840,-13.890284,-25.610896,0.000001,61.489771,0,0,0,0.436332,0,9.786401,380.94826,-141.158102,-39.364477,-0.138903,-0.256109,0,0.614898,0,0
3.84,-1189388.108,-6195505.28,941834.8381,-475.324897,-35.281834,528.602413,2384,388840,-13.881169,-25.590311,0.000001,61.451807,0,0,0,0.436332,0,9.780359,380.948141,-92.593576,-113.584039,-0.138812,-0.255903,0,0.614518,0,0
3.85,-1189388.108,-6195505.28,941834.8381,-475.324897,-35.281834,528.602413,2384,388840,-13.872065,-25.569749,0.000001,61.413763,0,0,0,0.436332,0,9.774304,380.948022,-10.165105,-146.189286,-0.138721,-0.255697,0,0.614138,0,0
3.86,-1189388.108,-6195505.28,941834.8381,-475.324897,-35.281834,528.602413,2384,388840,-13.862971,-25.549211,0.000001,61.375641,0,0,0,0.436332,0,9.768237,380.947903,75.934023,-125.33313,-0.13863,-0.255492,0,0.613756,0,0
3.87,-1189388.108,-6195505.28,941834.8381,-475.324897,-35.281834,528.602413,2384,388840,-13.853887,-25.528695,0.000001,61.337439,0,0,0,0.436332,0,9.762157,380.947785,134.259142,-58.724653,-0.138539,-0.255287,0,0.613374,0,0
3.88,-1189388.108,-6195505.28,941834.8381,-475.324897,-35.281834,528.602413,2384,388840,-13.844814,-25.508203,0.000001,61.299158,0,0,0,0.436332,0,9.756064,380.947667,143.587863,29.263638,-0.138448,-0.255082,0,0.612992,0,0
3.89,-1189388.108,-6195505.28,941834.8381,-475.324897,-35.281834,528.602413,2384,388840,-13.835752,-25.487735,0.000001,61.260798,0,0,0,0.436332,0,9.749959,380.947549,100.608425,106.543479,-0.138358,-0.254877,0,0.612608,0,0
3.9,-1189392.759,-6195529.384,941940.0582,-474.75361,-32.30197,523.612826,2384,388840,-13.826701,-25.467289,0.000001,61.22236,0,0,0,0.436332,0,9.743841,380.947431,21.049956,145.017932,-0.138267,-0.254673,0,0.612224,0,0
3.91,-1189392.759,-6195529.384,941940.0582,-474.75361,-32.30197,523.612826,2384,388840,-13.81766,-25.446867,0.000001,61.183843,0,0,0,0.436332,0,9.737711,380.947314,-66.113028,130.775006,-0.138177,-0.254469,0,0.611838,0,0
3.92,-1189392.759,-6195529.384,941940.0582,-474.75361,-32.30197,523.612826,2384,388840,-13.808629,-25.426468,0.000001,61.145247,0,0,0,0.436332,0,9.731568,380.947197,-129.232561,69.07759,-0.138086,-0.254265,0,0.611452,0,0
3.93,-1189392.759,-6195529.384,941940.0582,-474.75361,-32.30197,523.612826,2384,388840,-13.799609,-25.406092,0.000001,61.106573,0,0,0,0.436332,0,9.725413,380.94708,-145.471169,-17.625004,-0.137996,-0.254061,0,0.611066,0,0
3.94,-1189392.759,-6195529.384,941940.0582,-474.75361,-32.30197,523.612826,2384,388840,-13.7906,-25.385739,0.000001,61.067822,0,0,0,0.436332,0,9.719246,380.946963,-109.033429,-97.897635,-0.137906,-0.253857,0,0.610678,0,0
3.95,-1189392.759,-6195529.384,941940.0582,-474.75361,-32.30197,523.612826,2384,388840,-13.781601,-25.365409,0.000001,61.028992,0,0,0,0.436332,0,9.713066,380.946847,-33.189685,-142.72496,-0.137816,-0.253654,0,0.61029,0,0
3.96,-1189392.759,-6195529.384,941940.0582,-474.75361,-32.30197,523.612826,2384,388840,-13.772613,-25.345103,0.000001,60.990084,0,0,0,0.436332,0,9.706873,380.946731,54.597696,-135.980863,-0.137726,-0.253451,0,0.609901,0,0
3.97,-1189392.759,-6195529.384,941940.0582,-474.75361,-32.30197,523.612826,2384,388840,-13.763635,-25.324819,0.000001,60.951099,0,0,0,0.436332,0,9.700669,380.946615,122.641184,-80.190882,-0.137636,-0.253248,0,0.609511,0,0
3.98,-1189392.759,-6195529.384,941940.0582,-474.75361,-32.30197,523.612826,2384,388840,-13.754668,-25.304559,0.000001,60.912036,0,0,0,0.436332,0,9.694452,380.946499,146.462642,4.457178,-0.137547,-0.253046,0,0.60912,0,0
3.99,-1189392.759,-6195529.384,941940.0582,-474.75361,-32.30197,523.612826,2384,388840,-13.745711,-25.284321,0.000001,60.872895,0,0,0,0.436332,0,9.688222,380.946383,117.5707,87.453056,-0.137457,-0.252843,0,0.608729,0,0
4,-1189846.84,-6195454.462,941992.2961,-474.472738,-30.790646,521.149091,2384,388841,-13.736765,-25.264106,0.000001,60.833678,0,0,0,0.436332,0,9.681981,380.946268,46.443991,138.973367,-0.137368,-0.252641,0,0.608337,0,0
4.01,-1189846.84,-6195454.462,941992.2961,-474.472738,-30.790646,521.149091,2384,388841,-13.727829,-25.243915,0.000001,60.794383,0,0,0,0.436332,0,9.675727,380.946153,-41.311556,140.583538,-0.137278,-0.252439,0,0.607944,0,0
4.02,-1189846.84,-6195454.462,941992.2961,-474.472738,-30.790646,521.149091,2384,388841,-13.718904,-25.223746,0.000001,60.755012,0,0,0,0.436332,0,9.66946,380.946038,-114.207442,91.797445,-0.137189,-0.252237,0,0.60755,0,0
4.03,-1189846.84,-6195454.462,941992.2961,-474.472738,-30.790646,521.149091,2384,388841,-13.709989,-25.2036,0.000001,60.715563,0,0,0,0.436332,0,9.663182,380.945924,-146.172283,10.17396,-0.1371,-0.252036,0,0.607156,0,0
4.04,-1189846.84,-6195454.462,941992.2961,-474.472738,-30.790646,521.149091,2384,388841,-13.701085,-25.183477,0.000001,60.676038,0,0,0,0.436332,0,9.656891,380.945809,-125.851337,-75.040134,-0.137011,-0.251835,0,0.60676,0,0
4.05,-1189846.84,-6195454.462,941992.2961,-474.472738,-30.790646,521.149091,2384,388841,-13.692191,-25.163377,0.000001,60.636437,0,0,0,0.436332,0,9.650589,380.945695,-60.597896,-133.406188,-0.136922,-0.251634,0,0.606364,0,0
4.06,-1189846.84,-6195454.462,941992.2961,-474.472738,-30.790646,521.149091,2384,388841,-13.683308,-25.1433,0.000001,60.596759,0,0,0,0.436332,0,9.644274,380.945582,26.231012,-144.156115,-0.136833,-0.251433,0,0.605968,0,0
4.07,-1189846.84,-6195454.462,941992.2961,-474.472738,-30.790646,521.149091,2384,388841,-13.674435,-25.123245,0.000001,60.557005,0,0,0,0.436332,0,9.637947,380.945468,103.665184,-103.54862,-0.136744,-0.251232,0,0.60557,0,0
4.08,-1189846.84,-6195454.462,941992.2961,-474.472738,-30.790646,521.149091,2384,388841,-13.665572,-25.103214,0.000001,60.517175,0,0,0,0.436332,0,9.631608,380.945355,144.173385,-26.125807,-0.136656,-0.251032,0,0.605172,0,0
4.09,-1189846.84,-6195454.462,941992.2961,-474.472738,-30.790646,521.149091,2384,388841,-13.656721,-25.083205,0.000001,60.477269,0,0,0,0.436332,0,9.625256,380.945241,133.431072,60.534352,-0.136567,-0.250832,0,0.604773,0,0
4.1,-1189849.095,-6195466.144,942044.2887,-474.19117,-29.32261,518.705755,2384,388841,-13.647879,-25.063219,0.000001,60.437288,0,0,0,0.436332,0,9.618893,380.945129,75.345811,125.662259,-0.136479,-0.250632,0,0.604373,0,0
4.11,-1189849.095,-6195466.144,942044.2887,-474.19117,-29.32261,518.705755,2384,388841,-13.639048,-25.043255,0.000001,60.397231,0,0,0,0.436332,0,9.612518,380.945016,-9.40807,146.216343,-0.13639,-0.250433,0,0.603972,0,0
4.12,-1189849.095,-6195466.144,942044.2887,-474.19117,-29.32261,518.705755,2384,388841,-13.630227,-25.023314,0.000001,60.357099,0,0,0,0.436332,0,9.606131,380.944904,-90.781754,115.004957,-0.136302,-0.250233,0,0.603571,0,0
4.13,-1189849.095,-6195466.144,942044.2887,-474.19117,-29.32261,518.705755,2384,388841,-13.621417,-25.003396,0.000001,60.316891,0,0,0,0.436332,0,9.599731,380.944791,-140.016245,43.158482,-0.136214,-0.250034,0,0.603169,0,0
4.14,-1189849.095,-6195466.144,942044.2887,-474.19117,-29.32261,518.705755,2384,388841,-13.612618,-24.9835,0.000001,60.276608,0,0,0,0.436332,0,9.59332,380.944679,-139.790297,-43.881804,-0.136126,-0.249835,0,0.602766,0,0
4.15,-1189849.095,-6195466.144,942044.2887,-474.19117,-29.32261,518.705755,2384,388841,-13.603828,-24.963628,0.000001,60.23625,0,0,0,0.436332,0,9.586897,380.944568,-90.276984,-115.398192,-0.136038,-0.249636,0,0.602363,0,0
4.16,-1189849.095,-6195466.144,942044.2887,-474.19117,-29.32261,518.705755,2384,388841,-13.595049,-24.943777,0.000001,60.195818,0,0,0,0.436332,0,9.580462,380.944456,-9.00459,-146.237241,-0.13595,-0.249438,0,0.601958,0,0
4.17,-1189849.095,-6195466.144,942044.2887,-474.19117,-29.32261,518.705755,2384,388841,-13.586281,-24.923949,0.000001,60.155311,0,0,0,0.436332,0,9.574015,380.944345,75.385625,-125.631038,-0.135863,-0.249239,0,0.601553,0,0
4.18,-1189849.095,-6195466.144,942044.2887,-474.19117,-29.32261,518.705755,2384,388841,-13.577523,-24.904144,0.000001,60.114729,0,0,0,0.436332,0,9.567556,380.944234,133.249006,-60.91461,-0.135775,-0.249041,0,0.601147,0,0
4.19,-1189849.095,-6195466.144,942044.2887,-474.19117,-29.32261,518.705755,2384,388841,-13.568775,-24.884361,0.000001,60.074073,0,0,0,0.436332,0,9.561086,380.944123,144.340511,25.128498,-0.135688,-0.248844,0,0.600741,0,0
4.2,-1189851.322,-6195477.68,942096.0379,-473.91124,-27.863138,516.282591,2384,388841,-13.560038,-24.864601,0.000001,60.033343,0,0,0,0.436332,0,9.554603,380.944013,104.864357,102.317293,-0.1356,-0.248646,0,0.600333,0,0
4.21,-1189851.322,-6195477.68,942096.0379,-473.91124,-27.863138,516.282591,2384,388841,-13.551311,-24.844863,0.000001,59.992539,0,0,0,0.436332,0,9.548109,380.943902,28.727539,143.665681,-0.135513,-0.248449,0,0.599925,0,0
4.22,-1189851.322,-6195477.68,942096.0379,-473.91124,-27.863138,516.282591,2384,388841,-13.542594,-24.825147,0.000001,59.951662,0,0,0,0.436332,0,9.541603,380.943792,-57.39946,134.796658,-0.135426,-0.248251,0,0.599517,0,0
4.23,-1189851.322,-6195477.68,942096.0379,-473.91124,-27.863138,516.282591,2384,388841,-13.533888,-24.805454,0.000001,59.91071,0,0,0,0.436332,0,9.535086,380.943683,-123.446847,78.901524,-0.135339,-0.248055,0,0.599107,0,0
4.24,-1189851.322,-6195477.68,942096.0379,-473.91124,-27.863138,516.282591,2384,388841,-13.525192,-24.785784,0.000001,59.869685,0,0,0,0.436332,0,9.528556,380.943573,-146.439372,-4.452295,-0.135252,-0.247858,0,0.598697,0,0
4.25,-1189851.322,-6195477.68,942096.0379,-473.91124,-27.863138,516.282591,2384,388841,-13.516506,-24.766135,0.000001,59.828587,0,0,0,0.436332,0,9.522015,380.943464,-118.459402,-86.205688,-0.135165,-0.247661,0,0.598286,0,0
4.26,-1189851.322,-6195477.68,942096.0379,-473.91124,-27.863138,516.282591,2384,388841,-13.507831,-24.746509,0.000001,59.787415,0,0,0,0.436332,0,9.515463,380.943354,-49.329627,-137.950631,-0.135078,-0.247465,0,0.597874,0,0
4.27,-1189851.322,-6195477.68,942096.0379,-473.91124,-27.863138,516.282591,2384,388841,-13.499166,-24.726906,0.000001,59.74617,0,0,0,0.436332,0,9.508898,380.943246,36.877709,-141.787029,-0.134992,-0.247269,0,0.597462,0,0
4.28,-1189851.322,-6195477.68,942096.0379,-473.91124,-27.863138,516.282591,2384,388841,-13.490511,-24.707324,0.000001,59.704853,0,0,0,0.436332,0,9.502322,380.943137,110.250244,-96.478749,-0.134905,-0.247073,0,0.597049,0,0
4.29,-1189851.322,-6195477.68,942096.0379,-473.91124,-27.863138,516.282591,2384,388841,-13.481867,-24.687765,0.000001,59.663463,0,0,0,0.436332,0,9.495735,380.943029,145.416648,-17.80456,-0.134819,-0.246878,0,0.596635,0,0
4.3,-1189853.521,-6195489.07,942147.5459,-473.632928,-26.412129,513.87937,2384,388841,-13.473375,-24.668357,0.000001,59.622,0,0,0,0.436332,0,9.489136,380.94292,130.2961,66.975137,-0.134734,-0.246684,0,0.59622,0,0
4.31,-1189853.521,-6195489.07,942147.5459,-473.632928,-26.412129,513.87937,2384,388841,-13.464998,-24.649067,0.000001,59.580464,0,0,0,0.436332,0,9.482525,380.942812,70.207139,128.582422,-0.13465,-0.246491,0,0.595805,0,0
4.32,-1189853.521,-6195489.07,942147.5459,-473.632928,-26.412129,513.87937,2384,388841,-13.456631,-24.629799,0.000001,59.538857,0,0,0,0.436332,0,9.475903,380.942705,-14.046875,145.824915,-0.134566,-0.246298,0,0.595389,0,0
4.33,-1189853.521,-6195489.07,942147.5459,-473.632928,-26.412129,513.87937,2384,388841,-13.448274,-24.610551,0.000001,59.497177,0,0,0,0.436332,0,9.46927,380.942597,-93.412317,112.854324,-0.134483,-0.246106,0,0.594972,0,0
4.34,-1189853.521,-6195489.07,942147.5459,-473.632928,-26.412129,513.87937,2384,388841,-13.439927,-24.591325,0.000001,59.455426,0,0,0,0.436332,0,9.462625,380.94249,-140.613088,41.105454,-0.134399,-0.245913,0,0.594554,0,0
4.35,-1189853.521,-6195489.07,942147.5459,-473.632928,-26.412129,513.87937,2384,388841,-13.431589,-24.57212,0.000001,59.413603,0,0,0,0.436332,0,9.455969,380.942383,-139.507586,-44.710977,-0.134316,-0.245721,0,0.594136,0,0
4.36,-1189853.521,-6195489.07,942147.5459,-473.632928,-26.412129,513.87937,2384,388841,-13.42326,-24.552936,0.000001,59.371708,0,0,0,0.436332,0,9.449301,380.942276,-90.571084,-115.143634,-0.134233,-0.245529,0,0.593717,0,0
4.37,-1189853.521,-6195489.07,942147.5459,-473.632928,-26.412129,513.87937,2384,388841,-13.414942,-24.533774,0.000001,59.329741,0,0,0,0.436332,0,9.442622,380.94217,-10.6547,-146.107476,-0.134149,-0.245338,0,0.593297,0,0
4.38,-1189853.521,-6195489.07,942147.5459,-473.632928,-26.412129,513.87937,2384,388841,-13.406633,-24.514632,0.000001,59.287704,0,0,0,0.436332,0,9.435931,380.942063,72.854104,-127.094204,-0.134066,-0.245146,0,0.592877,0,0
4.39,-1189853.521,-6195489.07,942147.5459,-473.632928,-26.412129,513.87937,2384,388841,-13.398333,-24.495512,0.000001,59.245595,0,0,0,0.436332,0,9.429229,380.941957,131.433574,-64.696311,-0.133983,-0.244955,0,0.592456,0,0
4.4,-1189855.693,-6195500.316,942198.8145,-473.356207,-24.969438,511.495666,2384,388841,-13.390043,-24.476413,0.000001,59.203415,0,0,0,0.436332,0,9.422516,380.941851,145.159133,19.722149,-0.1339,-0.244764,0,0.592034,0,0
4.41,-1189855.693,-6195500.316,942198.8145,-473.356207,-24.969438,511.495666,2384,388841,-13.381763,-24.457335,0.000001,59.161165,0,0,0,0.436332,0,9.415792,380.941746,109.447501,97.371052,-0.133818,-0.244573,0,0.591612,0,0
4.42,-1189855.693,-6195500.316,942198.8145,-473.356207,-24.969438,511.495666,2384,388841,-13.373493,-24.438278,0.000001,59.118844,0,0,0,0.436332,0,9.409056,380.94164,36.542136,141.860106,-0.133735,-0.244383,0,0.591188,0,0
4.43,-1189855.693,-6195500.316,942198.8145,-473.356207,-24.969438,511.495666,2384,388841,-13.369418,-24.42302,0.000001,59.076452,0,0,0,0.436332,0,9.402309,380.941535,-48.724992,138.149314,-0.133694,-0.24423,0,0.590765,0,0
4.44,-1189855.693,-6195500.316,942198.8145,-473.356207,-24.969438,511.495666,2384,388841,-13.365698,-24.40809,0.000001,59.03399,0,0,0,0.436332,0,9.395551,380.94143,-117.414754,87.594942,-0.133657,-0.244081,0,0.59034,0,0
4.45,-1189855.693,-6195500.316,942198.8145,-473.356207,-24.969438,511.495666,2384,388841,-13.361979,-24.393167,0.000001,58.991458,0,0,0,0.436332,0,9.388782,380.941326,-146.30075,7.411453,-0.13362,-0.243932,0,0.589915,0,0
4.46,-1189855.693,-6195500.316,942198.8145,-473.356207,-24.969438,511.495666,2384,388841,-13.35826,-24.37825,0.000001,58.948856,0,0,0,0.436332,0,9.382002,380.941221,-125.696365,-75.226351,-0.133583,-0.243783,0,0.589489,0,0
4.47,-1189855.693,-6195500.316,942198.8145,-473.356207,-24.969438,511.495666,2384,388841,-13.35454,-24.36334,0.000001,58.906185,0,0,0,0.436332,0,9.37521,380.941117,-62.660578,-132.408357,-0.133545,-0.243633,0,0.589062,0,0
4.48,-1189855.693,-6195500.316,942198.8145,-473.356207,-24.969438,511.495666,2384,388841,-13.35082,-24.348436,0.000001,58.863443,0,0,0,0.436332,0,9.368408,380.941013,21.463544,-144.904722,-0.133508,-0.243484,0,0.588634,0,0
4.49,-1189855.693,-6195500.316,942198.8145,-473.356207,-24.969438,511.495666,2384,388841,-13.347099,-24.333538,0.000001,58.820632,0,0,0,0.436332,0,9.361594,380.940909,98.305456,-108.599451,-0.133471,-0.243335,0,0.588206,0,0
4.5,-1189857.836,-6195511.418,942249.8456,-473.080955,-23.534432,509.128786,2384,388841,-13.343379,-24.318646,0.000001,58.777752,0,0,0,0.436332,0,9.35477,380.940806,142.041656,-35.801015,-0.133434,-0.243186,0,0.587778,0,0
4.51,-1189857.836,-6195511.418,942249.8456,-473.080955,-23.534432,509.128786,2384,388841,-13.339658,-24.303762,0.000001,58.734803,0,0,0,0.436332,0,9.347934,380.940702,138.054832,48.970905,-0.133397,-0.243038,0,0.587348,0,0
4.52,-1189857.836,-6195511.418,942249.8456,-473.080955,-23.534432,509.128786,2384,388841,-13.335937,-24.288883,0.000001,58.691784,0,0,0,0.436332,0,9.341088,380.940599,87.780659,117.267147,-0.133359,-0.242889,0,0.586918,0,0
4.53,-1189857.836,-6195511.418,942249.8456,-473.080955,-23.534432,509.128786,2384,388841,-13.332216,-24.274011,0.000001,58.648697,0,0,0,0.436332,0,9.33423,380.940497,8.148439,146.254478,-0.133322,-0.24274,0,0.586487,0,0
4.54,-1189857.836,-6195511.418,942249.8456,-473.080955,-23.534432,509.128786,2384,388841,-13.328494,-24.259145,0.000001,58.605541,0,0,0,0.436332,0,9.327362,380.940394,-74.15564,126.322811,-0.133285,-0.242591,0,0.586055,0,0
4.55,-1189857.836,-6195511.418,942249.8456,-473.080955,-23.534432,509.128786,2384,388841,-13.324773,-24.244286,0.000001,58.562317,0,0,0,0.436332,0,9.320482,380.940292,-131.646894,64.228879,-0.133248,-0.242443,0,0.585623,0,0
4.56,-1189857.836,-6195511.418,942249.8456,-473.080955,-23.534432,509.128786,2384,388841,-13.321051,-24.229433,0.000001,58.519024,0,0,0,0.436332,0,9.313592,380.940189,-145.209923,-19.237302,-0.133211,-0.242294,0,0.58519,0,0
4.57,-1189857.836,-6195511.418,942249.8456,-473.080955,-23.534432,509.128786,2384,388841,-13.317329,-24.214587,0.000001,58.475663,0,0,0,0.436332,0,9.306691,380.940088,-110.421483,-96.243618,-0.133173,-0.242146,0,0.584757,0,0
4.58,-1189857.836,-6195511.418,942249.8456,-473.080955,-23.534432,509.128786,2384,388841,-13.313607,-24.199747,0.000001,58.432234,0,0,0,0.436332,0,9.299779,380.939986,-38.948208,-141.203815,-0.133136,-0.241997,0,0.584322,0,0
4.59,-1189857.836,-6195511.418,942249.8456,-473.080955,-23.534432,509.128786,2384,388841,-13.309885,-24.184914,0.000001,58.388738,0,0,0,0.436332,0,9.292856,380.939884,45.406418,-139.260476,-0.133099,-0.241849,0,0.583887,0,0
4.6,-1189857.836,-6195511.418,942249.8456,-473.080955,-23.534432,509.128786,2384,388841,-13.306163,-24.170087,0.000001,58.345174,0,0,0,0.436332,0,9.285923,380.939783,114.653377,-91.156836,-0.133062,-0.241701,0,0.583452,0,0
4.61,-1189857.836,-6195511.418,942249.8456,-473.080955,-23.534432,509.128786,2384,388841,-13.302441,-24.155267,0.000001,58.301542,0,0,0,0.436332,0,9.278979,380.939682,145.903961,-12.912887,-0.133024,-0.241553,0,0.583015,0,0
4.62,-1189857.836,-6195511.418,942249.8456,-473.080955,-23.534432,509.128786,2384,388841,-13.298718,-24.140453,0.000001,58.257843,0,0,0,0.436332,0,9.272024,380.939582,128.909895,69.546318,-0.132987,-0.241405,0,0.582578,0,0
4.63,-1189857.836,-6195511.418,942249.8456,-473.080955,-23.534432,509.128786,2384,388841,-13.294996,-24.125646,0.000001,58.214076,0,0,0,0.436332,0,9.265058,380.939481,69.382485,128.997152,-0.13295,-0.241256,0,0.582141,0,0
4.64,-1189857.836,-6195511.418,942249.8456,-473.080955,-23.534432,509.128786,2384,388841,-13.291273,-24.110845,0.000001,58.170243,0,0,0,0.436332,0,9.258082,380.939381,-12.969935,145.896259,-0.132913,-0.241108,0,0.581702,0,0
4.65,-1189857.836,-6195511.418,942249.8456,-473.080955,-23.534432,509.128786,2384,388841,-13.287551,-24.096051,0.000001,58.126343,0,0,0,0.436332,0,9.251095,380.939281,-90.998477,114.773508,-0.132876,-0.240961,0,0.581263,0,0
4.66,-1189857.836,-6195511.418,942249.8456,-473.080955,-23.534432,509.128786,2384,388841,-13.283828,-24.081263,0.000001,58.082376,0,0,0,0.436332,0,9.244097,380.939181,-139.072797,45.958478,-0.132838,-0.240813,0,0.580824,0,0
4.67,-1189857.836,-6195511.418,942249.8456,-473.080955,-23.534432,509.128786,2384,388841,-13.280105,-24.066482,0.000001,58.038343,0,0,0,0.436332,0,9.237089,380.939081,-141.483542,-37.88899,-0.132801,-0.240665,0,0.580383,0,0
4.68,-1189857.836,-6195511.418,942249.8456,-473.080955,-23.534432,509.128786,2384,388841,-13.276383,-24.051708,0.000001,57.994244,0,0,0,0.436332,0,9.230071,380.938982,-97.539166,-109.265836,-0.132764,-0.240517,0,0.579942,0,0
4.69,-1189857.836,-6195511.418,942249.8456,-473.080955,-23.534432,509.128786,2384,388841,-13.27266,-24.03694,0.000001,57.950078,0,0,0,0.436332,0,9.223041,380.938883,-21.715802,-144.848472,-0.132727,-0.240369,0,0.579501,0,0
4.7,-1189862.041,-6195533.192,942351.201,-472.53437,-20.684952,504.434471,2384,388841,-13.268937,-24.022178,0.000001,57.905847,0,0,0,0.436332,0,9.216002,380.938784,61.149157,-133.090872,-0.132689,-0.240222,0,0.579058,0,0
4.71,-1189862.041,-6195533.192,942351.201,-472.53437,-20.684952,504.434471,2384,388841,-13.265214,-24.007424,0.000001,57.861549,0,0,0,0.436332,0,9.208952,380.938685,124.011901,-77.930689,-0.132652,-0.240074,0,0.578615,0,0
4.72,-1189862.041,-6195533.192,942351.201,-472.53437,-20.684952,504.434471,2384,388841,-13.261491,-23.992675,0.000001,57.817186,0,0,0,0.436332,0,9.201891,380.938587,146.442036,2.572598,-0.132615,-0.239927,0,0.578172,0,0
4.73,-1189862.041,-6195533.192,942351.201,-472.53437,-20.684952,504.434471,2384,388841,-13.257768,-23.977934,0.000001,57.772758,0,0,0,0.436332,0,9.19482,380.938489,121.233182,82.183624,-0.132578,-0.239779,0,0.577728,0,0
4.74,-1189862.041,-6195533.192,942351.201,-472.53437,-20.684952,504.434471,2384,388841,-13.254046,-23.963199,0.000001,57.728264,0,0,0,0.436332,0,9.187739,380.938391,56.675159,135.052965,-0.13254,-0.239632,0,0.577283,0,0
4.75,-1189862.041,-6195533.192,942351.201,-472.53437,-20.684952,504.434471,2384,388841,-13.250323,-23.948471,0.000001,57.683706,0,0,0,0.436332,0,9.180647,380.938293,-26.213962,144.097016,-0.132503,-0.239485,0,0.576837,0,0
4.76,-1189862.041,-6195533.192,942351.201,-472.53437,-20.684952,504.434471,2384,388841,-13.2466,-23.933749,0.000001,57.639082,0,0,0,0.436332,0,9.173545,380.938195,-100.558702,106.483868,-0.132466,-0.239337,0,0.576391,0,0
4.77,-1189862.041,-6195533.192,942351.201,-472.53437,-20.684952,504.434471,2384,388841,-13.242878,-23.919034,0.000001,57.594393,0,0,0,0.436332,0,9.166432,380.938098,-142.344956,34.47499,-0.132429,-0.23919,0,0.575944,0,0
4.78,-1189862.041,-6195533.192,942351.201,-472.53437,-20.684952,504.434471,2384,388841,-13.239155,-23.904326,0.000001,57.54964,0,0,0,0.436332,0,9.15931,380.938001,-138.156851,-48.611121,-0.132392,-0.239043,0,0.575496,0,0
4.79,-1189862.041,-6195533.192,942351.201,-472.53437,-20.684952,504.434471,2384,388841,-13.235432,-23.889624,0.000001,57.504823,0,0,0,0.436332,0,9.152177,380.937904,-89.445672,-115.972297,-0.132354,-0.238896,0,0.575048,0,0
4.8,-1189864.102,-6195543.867,942401.528,-472.263021,-19.270393,502.106902,2384,388841,-13.23171,-23.874929,0.000001,57.459941,0,0,0,0.436332,0,9.145034,380.937807,-11.985257,-145.966437,-0.132317,-0.238749,0,0.574599,0,0
4.81,-1189864.102,-6195543.867,942401.528,-472.263021,-19.270393,502.106902,2384,388841,-13.227988,-23.860241,0.000001,57.414995,0,0,0,0.436332,0,9.13788,380.937711,69.271578,-129.038913,-0.13228,-0.238602,0,0.57415,0,0
4.82,-1189864.102,-6195543.867,942401.528,-472.263021,-19.270393,502.106902,2384,388841,-13.224265,-23.845559,0.000001,57.369985,0,0,0,0.436332,0,9.130717,380.937615,128.247183,-70.724807,-0.132243,-0.238456,0,0.5737,0,0
4.83,-1189864.102,-6195543.867,942401.528,-472.263021,-19.270393,502.106902,2384,388841,-13.220543,-23.830884,0.000001,57.324912,0,0,0,0.436332,0,9.123543,380.937519,146.099184,10.203546,-0.132205,-0.238309,0,0.573249,0,0
4.84,-1189864.102,-6195543.867,942401.528,-472.263021,-19.270393,502.106902,2384,388841,-13.216821,-23.816216,0.000001,57.279775,0,0,0,0.436332,0,9.116359,380.937423,117.209511,87.810935,-0.132168,-0.238162,0,0.572798,0,0
4.85,-1189864.102,-6195543.867,942401.528,-472.263021,-19.270393,502.106902,2384,388841,-13.213099,-23.801554,0.000001,57.234575,0,0,0,0.436332,0,9.109165,380.937328,50.908931,137.320269,-0.132131,-0.238016,0,0.572346,0,0
4.86,-1189864.102,-6195543.867,942401.528,-472.263021,-19.270393,502.106902,2384,388841,-13.209378,-23.7869,0.000001,57.189311,0,0,0,0.436332,0,9.101962,380.937233,-31.577483,143.007637,-0.132094,-0.237869,0,0.571893,0,0
4.87,-1189864.102,-6195543.867,942401.528,-472.263021,-19.270393,502.106902,2384,388841,-13.205656,-23.772252,0.000001,57.143984,0,0,0,0.436332,0,9.094748,380.937138,-103.951473,103.160842,-0.132057,-0.237723,0,0.57144,0,0
4.88,-1189864.102,-6195543.867,942401.528,-472.263021,-19.270393,502.106902,2384,388841,-13.201935,-23.75761,0.000001,57.098595,0,0,0,0.436332,0,9.087524,380.937043,-143.229027,30.549307,-0.132019,-0.237576,0,0.570986,0,0
4.89,-1189864.102,-6195543.867,942401.528,-472.263021,-19.270393,502.106902,2384,388841,-13.198213,-23.742976,0.000001,57.053143,0,0,0,0.436332,0,9.08029,380.936948,-137.018326,-51.706279,-0.131982,-0.23743,0,0.570531,0,0
4.9,-1189866.136,-6195554.4,942451.6228,-471.992958,-17.862571,499.792326,2384,388841,-13.194492,-23.728348,0.000001,57.007628,0,0,0,0.436332,0,9.073046,380.936854,-87.390555,-117.516801,-0.131945,-0.237283,0,0.570076,0,0
4.91,-1189866.136,-6195554.4,942451.6228,-471.992958,-17.862571,499.792326,2384,388841,-13.190771,-23.713727,0.000001,56.962051,0,0,0,0.436332,0,9.065792,380.93676,-10.147175,-146.096164,-0.131908,-0.237137,0,0.569621,0,0
4.92,-1189866.136,-6195554.4,942451.6228,-471.992958,-17.862571,499.792326,2384,388841,-13.187051,-23.699113,0.000001,56.916412,0,0,0,0.436332,0,9.058528,380.936666,70.246067,-128.500161,-0.131871,-0.236991,0,0.569164,0,0
4.93,-1189866.136,-6195554.4,942451.6228,-471.992958,-17.862571,499.792326,2384,388841,-13.18333,-23.684505,0.000001,56.870711,0,0,0,0.436332,0,9.051255,380.936572,128.423483,-70.384354,-0.131833,-0.236845,0,0.568707,0,0
4.94,-1189866.136,-6195554.4,942451.6228,-471.992958,-17.862571,499.792326,2384,388841,-13.17961,-23.669904,0.000001,56.824948,0,0,0,0.436332,0,9.043971,380.936479,146.113513,9.855794,-0.131796,-0.236699,0,0.568249,0,0
4.95,-1189866.136,-6195554.4,942451.6228,-471.992958,-17.862571,499.792326,2384,388841,-13.17589,-23.65531,0.000001,56.779124,0,0,0,0.436332,0,9.036678,380.936386,117.846292,86.93845,-0.131759,-0.236553,0,0.567791,0,0
4.96,-1189866.136,-6195554.4,942451.6228,-471.992958,-17.862571,499.792326,2384,388841,-13.17217,-23.640723,0.000001,56.733238,0,0,0,0.436332,0,9.029375,380.936293,52.601844,136.670538,-0.131722,-0.236407,0,0.567332,0,0
4.97,-1189866.136,-6195554.4,942451.6228,-471.992958,-17.862571,499.792326,2384,388841,-13.16845,-23.626143,0.000001,56.68729,0,0,0,0.436332,0,9.022062,380.9362,-29.083299,143.525953,-0.131685,-0.236261,0,0.566873,0,0
4.98,-1189866.136,-6195554.4,942451.6228,-471.992958,-17.862571,499.792326,2384,388841,-13.164731,-23.61157,0.000001,56.641282,0,0,0,0.436332,0,9.01474,380.936108,-101.606569,105.458002,-0.131647,-0.236116,0,0.566413,0,0
4.99,-1189866.136,-6195554.4,942451.6228,-471.992958,-17.862571,499.792326,2384,388841,-13.161012,-23.597003,0.000001,56.595213,0,0,0,0.436332,0,9.007408,380.936015,-142.327628,34.465627,-0.13161,-0.23597,0,0.565952,0,0
5,-1190319.925,-6195478.01,942501.4869,-471.725372,-16.427047,497.490691,2384,388842,-13.157293,-23.582443,0.000001,56.549083,0,0,0,0.436332,0,9.000066,380.935923,-138.616021,-47.226896,-0.131573,-0.235824,0,0.565491,0,0
5.01,-1190319.925,-6195478.01,942501.4869,-471.725372,-16.427047,497.490691,2384,388842,-13.153575,-23.56789,0.000001,56.502892,0,0,0,0.436332,0,8.992715,380.935831,-91.730942,-114.148864,-0.131536,-0.235679,0,0.565029,0,0
5.02,-1190319.925,-6195478.01,942501.4869,-471.725372,-16.427047,497.490691,2384,388842,-13.149856,-23.553344,0.000001,56.456641,0,0,0,0.436332,0,8.985354,380.93574,-16.353514,-145.522643,-0.131499,-0.235533,0,0.564566,0,0
5.03,-1190319.925,-6195478.01,942501.4869,-471.725372,-16.427047,497.490691,2384,388842,-13.146138,-23.538805,0.000001,56.41033,0,0,0,0.436332,0,8.977983,380.935648,64.045649,-131.689712,-0.131461,-0.235388,0,0.564103,0,0
5.04,-1190319.925,-6195478.01,942501.4869,-471.725372,-16.427047,497.490691,2384,388842,-13.142421,-23.524272,0.000001,56.363959,0,0,0,0.436332,0,8.970603,380.935557,124.531204,-77.043838,-0.131424,-0.235243,0,0.56364,0,0
5.05,-1190319.925,-6195478.01,942501.4869,-471.725372,-16.427047,497.490691,2384,388842,-13.138703,-23.509747,0.000001,56.317528,0,0,0,0.436332,0,8.963213,380.935466,146.429316,1.406399,-0.131387,-0.235097,0,0.563175,0,0
5.06,-1190319.925,-6195478.01,942501.4869,-471.725372,-16.427047,497.490691,2384,388842,-13.134986,-23.495228,0.000001,56.271037,0,0,0,0.436332,0,8.955814,380.935376,123.063833,79.363494,-0.13135,-0.234952,0,0.56271,0,0
5.07,-1190319.925,-6195478.01,942501.4869,-471.725372,-16.427047,497.490691,2384,388842,-13.13127,-23.480716,0.000001,56.224487,0,0,0,0.436332,0,8.948405,380.935285,61.74967,132.778003,-0.131313,-0.234807,0,0.562245,0,0
5.08,-1190319.925,-6195478.01,942501.4869,-471.725372,-16.427047,497.490691,2384,388842,-13.127553,-23.466211,0.000001,56.177878,0,0,0,0.436332,0,8.940987,380.935195,-18.538121,145.255316,-0.131276,-0.234662,0,0.561779,0,0
5.09,-1190319.925,-6195478.01,942501.4869,-471.725372,-16.427047,497.490691,2384,388842,-13.123837,-23.451713,0.000001,56.131209,0,0,0,0.436332,0,8.933559,380.935105,-93.064827,113.055101,-0.131238,-0.234517,0,0.561312,0,0
5.1,-1190319.925,-6195478.01,942501.4869,-471.725372,-16.427047,497.490691,2384,388842,-13.120122,-23.437222,0.000001,56.084481,0,0,0,0.436332,0,8.926122,380.935015,-138.96284,46.169215,-0.131201,-0.234372,0,0.560845,0,0
5.11,-1190319.925,-6195478.01,942501.4869,-471.725372,-16.427047,497.490691,2384,388842,-13.116407,-23.422738,0.000001,56.037695,0,0,0,0.436332,0,8.918676,380.934926,-142.231234,-34.817991,-0.131164,-0.234227,0,0.560377,0,0
5.12,-1190319.925,-6195478.01,942501.4869,-471.725372,-16.427047,497.490691,2384,388842,-13.112692,-23.408261,0.000001,55.99085,0,0,0,0.436332,0,8.911221,380.934836,-101.971115,-105.088809,-0.131127,-0.234083,0,0.559909,0,0
5.13,-1190319.925,-6195478.01,942501.4869,-471.725372,-16.427047,497.490691,2384,388842,-13.108977,-23.39379,0.000001,55.943947,0,0,0,0.436332,0,8.903756,380.934747,-30.586764,-143.199041,-0.13109,-0.233938,0,0.559439,0,0
5.14,-1190319.925,-6195478.01,942501.4869,-471.725372,-16.427047,497.490691,2384,388842,-13.105263,-23.379327,0.000001,55.896985,0,0,0,0.436332,0,8.896282,380.934658,50.073131,-137.600679,-0.131053,-0.233793,0,0.55897,0,0
5.15,-1190319.925,-6195478.01,942501.4869,-471.725372,-16.427047,497.490691,2384,388842,-13.10155,-23.36487,0.000001,55.849966,0,0,0,0.436332,0,8.888798,380.93457,115.422855,-90.103162,-0.131015,-0.233649,0,0.5585,0,0
5.16,-1190319.925,-6195478.01,942501.4869,-471.725372,-16.427047,497.490691,2384,388842,-13.097836,-23.350421,0.000001,55.802888,0,0,0,0.436332,0,8.881306,380.934481,145.630596,-15.247779,-0.130978,-0.233504,0,0.558029,0,0
5.17,-1190319.925,-6195478.01,942501.4869,-471.725372,-16.427047,497.490691,2384,388842,-13.094123,-23.335978,0.000001,55.755753,0,0,0,0.436332,0,8.873804,380.934393,131.611677,64.178515,-0.130941,-0.23336,0,0.557558,0,0
5.18,-1190319.925,-6195478.01,942501.4869,-471.725372,-16.427047,497.490691,2384,388842,-13.090411,-23.321542,0.000001,55.70856,0,0,0,0.436332,0,8.866293,380.934305,77.72082,124.095688,-0.130904,-0.233215,0,0.557086,0,0
5.19,-1190319.925,-6195478.01,942501.4869,-471.725372,-16.427047,497.490691,2384,388842,-13.086699,-23.307114,0.000001,55.66131,0,0,0,0.436332,0,8.858773,380.934217,0.358201,146.423658,-0.130867,-0.233071,0,0.556613,0,0
5.2,-1190323.86,-6195498.377,942600.5277,-471.191404,-13.64477,492.926033,2384,388842,-13.082988,-23.292692,0.000001,55.614003,0,0,0,0.436332,0,8.851244,380.93413,-77.053015,124.509434,-0.13083,-0.232927,0,0.55614,0,0
5.21,-1190323.86,-6195498.377,942600.5277,-471.191404,-13.64477,492.926033,2384,388842,-13.079277,-23.278277,0.000001,55.566639,0,0,0,0.436332,0,8.843705,380.934042,-131.170299,65.068193,-0.130793,-0.232783,0,0.555666,0,0
5.22,-1190323.86,-6195498.377,942600.5277,-471.191404,-13.64477,492.926033,2384,388842,-13.075566,-23.26387,0.000001,55.519218,0,0,0,0.436332,0,8.836158,380.933955,-145.758857,-13.914862,-0.130756,-0.232639,0,0.555192,0,0
5.23,-1190323.86,-6195498.377,942600.5277,-471.191404,-13.64477,492.926033,2384,388842,-13.071856,-23.249469,0.000001,55.471741,0,0,0,0.436332,0,8.828602,380.933868,-116.530471,-88.654769,-0.130719,-0.232495,0,0.554717,0,0
5.24,-1190323.86,-6195498.377,942600.5277,-471.191404,-13.64477,492.926033,2384,388842,-13.068146,-23.235075,0.000001,55.424207,0,0,0,0.436332,0,8.821037,380.933782,-52.361617,-136.737086,-0.130681,-0.232351,0,0.554242,0,0
5.25,-1190323.86,-6195498.377,942600.5277,-471.191404,-13.64477,492.926033,2384,388842,-13.064437,-23.220688,0.000001,55.376617,0,0,0,0.436332,0,8.813462,380.933695,27.441352,-143.824521,-0.130644,-0.232207,0,0.553766,0,0
5.26,-1190323.86,-6195498.377,942600.5277,-471.191404,-13.64477,492.926033,2384,388842,-13.060728,-23.206309,0.000001,55.328971,0,0,0,0.436332,0,8.805879,380.933609,98.976145,-107.898075,-0.130607,-0.232063,0,0.55329,0,0
5.27,-1190323.86,-6195498.377,942600.5277,-471.191404,-13.64477,492.926033,2384,388842,-13.05702,-23.191936,0.000001,55.281269,0,0,0,0.436332,0,8.798287,380.933523,140.907371,-39.788643,-0.13057,-0.231919,0,0.552813,0,0
5.28,-1190323.86,-6195498.377,942600.5277,-471.191404,-13.64477,492.926033,2384,388842,-13.053313,-23.17757,0.000001,55.233511,0,0,0,0.436332,0,8.790686,380.933437,140.810889,40.125658,-0.130533,-0.231776,0,0.552335,0,0
5.29,-1190323.86,-6195498.377,942600.5277,-471.191404,-13.64477,492.926033,2384,388842,-13.049605,-23.163211,0.000001,55.185698,0,0,0,0.436332,0,8.783077,380.933352,98.818993,108.038572,-0.130496,-0.231632,0,0.551857,0,0
5.3,-1190325.788,-6195508.352,942649.707,-470.926308,-12.263519,490.662902,2384,388842,-13.045899,-23.14886,0.000001,55.13783,0,0,0,0.436332,0,8.775458,380.933267,27.508089,143.807452,-0.130459,-0.231489,0,0.551378,0,0
5.31,-1190325.788,-6195508.352,942649.707,-470.926308,-12.263519,490.662902,2384,388842,-13.042193,-23.134515,0.000001,55.089906,0,0,0,0.436332,0,8.767831,380.933182,-51.903429,136.905311,-0.130422,-0.231345,0,0.550899,0,0
5.32,-1190325.788,-6195508.352,942649.707,-470.926308,-12.263519,490.662902,2384,388842,-13.038487,-23.120177,0.000001,55.041928,0,0,0,0.436332,0,8.760195,380.933097,-115.887419,89.481217,-0.130385,-0.231202,0,0.550419,0,0
5.33,-1190325.788,-6195508.352,942649.707,-470.926308,-12.263519,490.662902,2384,388842,-13.034782,-23.105847,0.000001,54.993895,0,0,0,0.436332,0,8.75255,380.933012,-145.573288,15.65095,-0.130348,-0.231058,0,0.549939,0,0
5.34,-1190325.788,-6195508.352,942649.707,-470.926308,-12.263519,490.662902,2384,388842,-13.031078,-23.091523,0.000001,54.945807,0,0,0,0.436332,0,8.744897,380.932928,-132.288423,-62.738025,-0.130311,-0.230915,0,0.549458,0,0
5.35,-1190325.788,-6195508.352,942649.707,-470.926308,-12.263519,490.662902,2384,388842,-13.027374,-23.077207,0.000001,54.897665,0,0,0,0.436332,0,8.737235,380.932844,-80.052759,-122.587091,-0.130274,-0.230772,0,0.548977,0,0
5.36,-1190325.788,-6195508.352,942649.707,-470.926308,-12.263519,490.662902,2384,388842,-13.023671,-23.062898,0.000001,54.849468,0,0,0,0.436332,0,8.729564,380.93276,-4.321992,-146.345864,-0.130237,-0.230629,0,0.548495,0,0
5.37,-1190325.788,-6195508.352,942649.707,-470.926308,-12.263519,490.662902,2384,388842,-13.019968,-23.048595,0.000001,54.801218,0,0,0,0.436332,0,8.721885,380.932676,72.616785,-127.131219,-0.1302,-0.230486,0,0.548012,0,0
